timestamp,orientation_x,orientation_y,orientation_z,orientation_w,angular_velocity_x,angular_velocity_y,angular_velocity_z,linear_acceleration_x,linear_acceleration_y,linear_acceleration_z
1729480238.3540566,0.0,0.0,-0.7081007084118516,0.7061114549039932,0.0,0.0,0.0,0.0,0.0,9.810001373291016
1729480238.371202,0.0,0.0,-0.7081007084118516,0.7061114549039932,0.0,0.0,0.0,0.159943088889122,0.020450055599212646,9.809999465942383
1729480238.387014,0.0,0.0,-0.7081007084118516,0.7061114549039932,0.0,0.0,0.0,-5.626678466796875e-05,0.019999919459223747,9.8100004196167
1729480238.403154,0.0,0.0,-0.7081007084118516,0.7061114549039932,0.0,0.0,0.0,-0.039943572133779526,-0.020112453028559685,9.809999465942383
1729480238.4190838,0.0,0.0,-0.7081007084118516,0.7061114549039932,0.0,0.0,0.0,-0.15983057022094727,-0.06044989824295044,9.810001373291016
1729480238.435404,0.0,0.0,-0.7081007084118516,0.7061114549039932,0.0,0.0,0.0,0.07994341850280762,0.02022498846054077,9.8100004196167
1729480238.4517877,0.0,0.0,-0.7081007084118516,0.7061114549039932,0.0,0.0,0.0,0.07983087748289108,0.060224827378988266,9.80999755859375
1729480238.467634,0.0,0.0,-0.7081007084118516,0.7061114549039932,0.0,0.0,0.0,-0.039943572133779526,-0.020112453028559685,9.810001373291016
1729480238.483486,0.0,0.0,-0.7081007084118516,0.7061114549039932,0.0,0.0,0.0,0.039943572133779526,0.020112453028559685,9.8100004196167
1729480238.498411,0.0,0.0,-0.7081007084118516,0.7061114549039932,0.0,0.0,0.0,0.039943572133779526,0.020112453028559685,9.8100004196167
1729480238.5150928,0.0,0.0,-0.7081007084118516,0.7061114549039932,0.0,0.0,0.0,-0.15999935567378998,-0.00045013427734375,9.8100004196167
1729480238.531141,0.0,0.0,-0.7081007084118516,0.7061114549039932,0.0,0.0,0.0,0.07988714426755905,0.04022490605711937,9.809998512268066
1729480238.547713,0.0,0.0,-0.7081007084118516,0.7061114549039932,0.0,0.0,0.0,0.07988714426755905,0.04022490605711937,9.809999465942383
1729480238.5632832,0.0,0.0,-0.7081007084118516,0.7061114549039932,0.0,0.0,0.0,0.0,0.0,9.809999465942383
1729480238.5794306,0.0,0.0,-0.7081007084118516,0.7061114549039932,0.0,0.0,0.0,0.04005610570311546,-0.01988738775253296,9.810001373291016
1729480238.5955288,0.0,0.0,-0.7081007084118516,0.7061114549039932,0.0,0.0,0.0,0.07994341850280762,0.02022498846054077,9.80999755859375
1729480238.6113126,0.0,0.0,-0.7081007084118516,0.7061114549039932,0.0,0.0,0.0,-0.07994341850280762,-0.02022498846054077,9.810001373291016
1729480238.6246188,0.0,0.0,-0.7081007084118516,0.7061114549039932,0.0,0.0,0.0,-0.15983057022094727,-0.06044989824295044,9.810001373291016
1729480238.6434412,0.0,0.0,-0.7081007084118516,0.7061114549039932,0.0,0.0,0.0,-0.04005610570311546,0.01988738775253296,9.8100004196167
1729480238.6579044,0.0,0.0,-0.7081007084118516,0.7061114549039932,0.0,0.0,0.0,5.626678466796875e-05,-0.019999919459223747,9.8100004196167
1729480238.6739712,0.0,0.0,-0.7081007084118516,0.7061114549039932,0.0,0.0,0.0,0.0,0.0,9.8100004196167
1729480238.6914382,0.0,0.0,-0.7081007084118516,0.7061114549039932,0.0,0.0,0.0,-0.07988714426755905,-0.04022490605711937,9.810001373291016
1729480238.70764,0.0,0.0,-0.7081007084118516,0.7061114549039932,0.0,0.0,0.0,-0.0001125335693359375,0.039999838918447495,9.80999755859375
1729480238.7232127,0.0,0.0,-0.7081007084118516,0.7061114549039932,0.0,0.0,0.0,-0.07999967783689499,-0.000225067138671875,9.8100004196167
1729480238.7393522,0.0,0.0,-0.7081007084118516,0.7061114549039932,0.0,0.0,0.0,0.07999967783689499,0.000225067138671875,9.8100004196167
1729480238.7552257,0.0,0.0,-0.7081007084118516,0.7061114549039932,0.0,0.0,0.0,0.07999967783689499,0.000225067138671875,9.809999465942383
1729480238.7713025,0.0,0.0,-0.7081007084118516,0.7061114549039932,0.0,0.0,0.0,0.07999967783689499,0.000225067138671875,9.809999465942383
1729480238.7876203,0.0,0.0,-0.7081007084118516,0.7061114549039932,0.0,0.0,0.0,0.15999935567378998,0.00045013427734375,9.8100004196167
1729480238.8032358,0.0,0.0,-0.7081007084118516,0.7061114549039932,0.0,0.0,0.0,-5.626678466796875e-05,0.019999919459223747,9.80999755859375
1729480238.8194275,0.0,0.0,-0.7081007084118516,0.7061114549039932,0.0,0.0,0.0,0.11988698691129684,0.04033742845058441,9.809998512268066
1729480238.835003,0.0,0.0,-0.7081007084118516,0.7061114549039932,0.0,0.0,0.0,0.039999838918447495,0.0001125335693359375,9.8100004196167
1729480238.8514364,0.0,0.0,-0.7081007084118516,0.7061114549039932,0.0,0.0,0.0,0.039999838918447495,0.0001125335693359375,9.809999465942383
1729480238.8672125,0.0,0.0,-0.7081007084118516,0.7061114549039932,0.0,0.0,0.0,0.039999838918447495,0.0001125335693359375,9.8100004196167
1729480238.8830187,0.0,0.0,-0.7081007084118516,0.7061114549039932,0.0,0.0,0.0,5.626678466796875e-05,-0.019999919459223747,9.8100004196167
1729480238.8995948,0.0,0.0,-0.7081007084118516,0.7061114549039932,0.0,0.0,0.0,0.08005594462156296,-0.01977485418319702,9.810001373291016
1729480238.9149714,0.0,0.0,-0.7081007084118516,0.7061114549039932,0.0,0.0,0.0,0.0,0.0,9.810001373291016
1729480238.9313905,0.0,0.0,-0.7081007084118516,0.7061114549039932,0.0,0.0,0.0,-0.039999838918447495,-0.0001125335693359375,9.810001373291016
1729480238.946496,0.0,0.0,-0.7081007084118516,0.7061114549039932,0.0,0.0,0.0,0.039999838918447495,0.0001125335693359375,9.8100004196167
1729480238.9630978,0.0,0.0,-0.7081007084118516,0.7061114549039932,0.0,0.0,0.0,0.0,0.0,9.809999465942383
1729480238.9781208,0.0,0.0,-0.7081007084118516,0.7061114549039932,0.0,0.0,0.0,-0.03988730162382126,-0.04011237248778343,9.810001373291016
1729480238.994174,0.0,0.0,-0.7081007084118516,0.7061114549039932,0.0,0.0,0.0,-0.07988714426755905,-0.04022490605711937,9.8100004196167
1729480239.01039,0.0,0.0,-0.7081007084118516,0.7061114549039932,0.0,0.0,0.0,-0.07988714426755905,-0.04022490605711937,9.810001373291016
1729480239.0266685,0.0,0.0,-0.7081007084118516,0.7061114549039932,0.0,0.0,0.0,0.07988714426755905,0.04022490605711937,9.809999465942383
1729480239.041045,0.0,0.0,-0.7081007084118516,0.7061114549039932,0.0,0.0,0.0,0.07994341850280762,0.02022498846054077,9.809999465942383
1729480239.0580137,0.0,0.0,-0.7081007084118516,0.7061114549039932,0.0,0.0,0.0,5.626678466796875e-05,-0.019999919459223747,9.8100004196167
1729480239.0740576,0.0,0.0,-0.7081007084118516,0.7061114549039932,0.0,0.0,0.0,5.626678466796875e-05,-0.019999919459223747,9.809999465942383
1729480239.089007,0.0,0.0,-0.7081007084118516,0.7061114549039932,0.0,0.0,0.0,5.626678466796875e-05,-0.019999919459223747,9.8100004196167
1729480239.1060703,0.0,0.0,-0.7081007084118516,0.7061114549039932,0.0,0.0,0.0,5.626678466796875e-05,-0.019999919459223747,9.8100004196167
1729480239.1212788,0.0,0.0,-0.7081007084118516,0.7061114549039932,0.0,0.0,0.0,-0.03988730162382126,-0.04011237248778343,9.8100004196167
1729480239.1376905,0.0,0.0,-0.7081007084118516,0.7061114549039932,0.0,0.0,0.0,0.039943572133779526,0.020112453028559685,9.809999465942383
1729480239.153312,0.0,0.0,-0.7081007084118516,0.7061114549039932,0.0,0.0,0.0,-0.07999967783689499,-0.000225067138671875,9.809999465942383
1729480239.1695678,0.0,0.0,-0.7081007084118516,0.7061114549039932,0.0,0.0,0.0,0.0,0.0,9.8100004196167
1729480239.1851866,0.0,0.0,-0.7081007084118516,0.7061114549039932,0.0,0.0,0.0,0.039943572133779526,0.020112453028559685,9.809999465942383
1729480239.2011578,0.0,0.0,-0.7081007084118516,0.7061114549039932,0.0,0.0,0.0,-0.07994341850280762,-0.02022498846054077,9.810001373291016
1729480239.217983,0.0,0.0,-0.7081007084118516,0.7061114549039932,0.0,0.0,0.0,-5.626678466796875e-05,0.019999919459223747,9.80999755859375
1729480239.2331126,0.0,0.0,-0.7081007084118516,0.7061114549039932,0.0,0.0,0.0,5.626678466796875e-05,-0.019999919459223747,9.8100004196167
1729480239.2489061,0.0,0.0,-0.7081007084118516,0.7061114549039932,0.0,0.0,0.0,5.626678466796875e-05,-0.019999919459223747,9.8100004196167
1729480239.2660117,0.0,0.0,-0.7081007084118516,0.7061114549039932,0.0,0.0,0.0,-0.11988698691129684,-0.04033742845058441,9.810002326965332
1729480239.28121,0.0,0.0,-0.7081007084118516,0.7061114549039932,0.0,0.0,0.0,-0.039943572133779526,-0.020112453028559685,9.8100004196167
1729480239.2956216,0.0,0.0,-0.7081007084118516,0.7061114549039932,0.0,0.0,0.0,0.039999838918447495,0.0001125335693359375,9.810001373291016
1729480239.3140304,0.0,0.0,-0.7081007084118516,0.7061114549039932,0.0,0.0,0.0,-0.15988683700561523,-0.04044997692108154,9.810001373291016
1729480239.3313646,0.0,0.0,-0.7081007084118516,0.7061114549039932,0.0,0.0,0.0,-0.039999838918447495,-0.0001125335693359375,9.810001373291016
1729480239.3471546,0.0,0.0,-0.7081007084118516,0.7061114549039932,0.0,0.0,0.0,-0.039943572133779526,-0.020112453028559685,9.810001373291016
1729480239.361998,0.0,0.0,-0.7081007084118516,0.7061114549039932,0.0,0.0,0.0,0.03988730162382126,0.04011237248778343,9.809999465942383
1729480239.3808365,0.0,0.0,-0.7081007084118516,0.7061114549039932,0.0,0.0,0.0,-0.07999967783689499,-0.000225067138671875,9.810001373291016
1729480239.3953698,0.0,0.0,-0.7081007084118516,0.7061114549039932,0.0,0.0,0.0,-0.11988698691129684,-0.04033742845058441,9.810004234313965
1729480239.4113953,0.0,0.0,-0.7081007084118516,0.7061114549039932,0.0,0.0,0.0,-0.04005610570311546,0.01988738775253296,9.809999465942383
1729480239.4271994,0.0,0.0,-0.7081007084118516,0.7061114549039932,0.0,0.0,0.0,-0.15999935567378998,-0.00045013427734375,9.810001373291016
1729480239.4453568,0.0,0.0,-0.7081007084118516,0.7061114549039932,0.0,0.0,0.0,0.039943572133779526,0.020112453028559685,9.809999465942383
1729480239.4596062,0.0,0.0,-0.7081007084118516,0.7061114549039932,0.0,0.0,0.0,-0.039999838918447495,-0.0001125335693359375,9.8100004196167
1729480239.4754071,0.0,0.0,-0.7081007084118516,0.7061114549039932,0.0,0.0,0.0,-5.626678466796875e-05,0.019999919459223747,9.809999465942383
1729480239.4913805,0.0,0.0,-0.7081007084118516,0.7061114549039932,0.0,0.0,0.0,-0.07994341850280762,-0.02022498846054077,9.809999465942383
1729480239.5074503,0.0,0.0,-0.7081007084118516,0.7061114549039932,0.0,0.0,0.0,-0.07999967783689499,-0.000225067138671875,9.809999465942383
1729480239.5220075,0.0,0.0,-0.7081007084118516,0.7061114549039932,0.0,0.0,0.0,-0.039943572133779526,-0.020112453028559685,9.809999465942383
1729480239.5365543,0.0,0.0,-0.7081007084118516,0.7061114549039932,0.0,0.0,0.0,5.626678466796875e-05,-0.019999919459223747,9.810001373291016
1729480239.5540042,0.0,0.0,-0.7081007084118516,0.7061114549039932,0.0,0.0,0.0,0.019999919459223747,5.626678466796875e-05,9.8100004196167
1729480239.5710108,0.0,0.0,-0.7081007084118516,0.7061114549039932,0.0,0.0,0.0,-0.039999838918447495,-0.0001125335693359375,9.810001373291016
1729480239.5873182,0.0,0.0,-0.7081007084118516,0.7061114549039932,0.0,0.0,0.0,0.0,0.0,9.8100004196167
1729480239.6022403,0.0,0.0,-0.7081007084118516,0.7061114549039932,0.0,0.0,0.0,0.039943572133779526,0.020112453028559685,9.809999465942383
1729480239.6193063,0.0,0.0,-0.7081007084118516,0.7061114549039932,0.0,0.0,0.0,0.07988714426755905,0.04022490605711937,9.80999755859375
1729480239.6655319,0.0,0.0,-0.7081007084118516,0.7061114549039932,0.0,0.0,0.0,5.626678466796875e-05,-0.019999919459223747,9.810001373291016
1729480239.66802,0.0,0.0,-0.7081007084118516,0.7061114549039932,0.0,0.0,0.0,0.15999935567378998,0.00045013427734375,9.809995651245117
1729480239.6835477,0.0,0.0,-0.7081007084118516,0.7061114549039932,0.0,0.0,0.0,-0.15988683700561523,-0.04044997692108154,9.8100004196167
1729480239.7010376,0.0,0.0,-0.7081007084118516,0.7061114549039932,0.0,0.0,0.0,-0.079971544444561,-0.010225027799606323,9.810001373291016
1729480239.7173972,0.0,0.0,-0.7081007084118516,0.7061114549039932,0.0,0.0,0.0,-0.039943572133779526,-0.020112453028559685,9.810001373291016
1729480239.7330036,0.0,0.0,-0.7081007084118516,0.7061114549039932,0.0,0.0,0.0,0.07988714426755905,0.04022490605711937,9.809999465942383
1729480239.749492,0.0,0.0,-0.7081007084118516,0.7061114549039932,0.0,0.0,0.0,-0.039999838918447495,-0.0001125335693359375,9.809999465942383
1729480239.7644944,0.0,0.0,-0.7081007084118516,0.7061114549039932,0.0,0.0,0.0,0.039999838918447495,0.0001125335693359375,9.809999465942383
1729480239.7814744,0.0,0.0,-0.7081007084118516,0.7061114549039932,0.0,0.0,0.0,-0.11988698691129684,-0.04033742845058441,9.810002326965332
1729480239.7971761,0.0,0.0,-0.7081007084118516,0.7061114549039932,0.0,0.0,0.0,-0.07994341850280762,-0.02022498846054077,9.8100004196167
1729480239.8131254,0.0,0.0,-0.7081007084118516,0.7061114549039932,0.0,0.0,0.0,-0.07994341850280762,-0.02022498846054077,9.809999465942383
1729480239.8295703,0.0,0.0,-0.7081007084118516,0.7061114549039932,0.0,0.0,0.0,5.626678466796875e-05,-0.019999919459223747,9.810003280639648
1729480239.84552,0.0,0.0,-0.7081007084118516,0.7061114549039932,0.0,0.0,0.0,-0.07988714426755905,-0.04022490605711937,9.810001373291016
1729480239.862418,0.0,0.0,-0.7081007084118516,0.7061114549039932,0.0,0.0,0.0,5.626678466796875e-05,-0.019999919459223747,9.810001373291016
1729480239.8766396,0.0,0.0,-0.7081007084118516,0.7061114549039932,0.0,0.0,0.0,0.07988714426755905,0.04022490605711937,9.809999465942383
1729480239.8934574,0.0,0.0,-0.7081007084118516,0.7061114549039932,0.0,0.0,0.0,-0.07999967783689499,-0.000225067138671875,9.8100004196167
1729480239.9090316,0.0,0.0,-0.7081007084118516,0.7061114549039932,0.0,0.0,0.0,-0.07994341850280762,-0.02022498846054077,9.8100004196167
1729480239.924224,0.0,0.0,-0.7081007084118516,0.7061114549039932,0.0,0.0,0.0,5.626678466796875e-05,-0.019999919459223747,9.8100004196167
1729480239.9402878,0.0,0.0,-0.7081007084118516,0.7061114549039932,0.0,0.0,0.0,-0.1597742885351181,-0.08044981211423874,9.810001373291016
1729480239.956037,0.0,0.0,-0.7081007084118516,0.7061114549039932,0.0,0.0,0.0,-0.07994341850280762,-0.02022498846054077,9.8100004196167
1729480239.971442,0.0,0.0,-0.7081007084118516,0.7061114549039932,0.0,0.0,0.0,0.07983087748289108,0.060224827378988266,9.809999465942383
1729480239.98816,0.0,0.0,-0.7081007084118516,0.7061114549039932,0.0,0.0,0.0,0.0,0.0,9.8100004196167
1729480240.004484,0.0,0.0,-0.7081007084118516,0.7061114549039932,0.0,0.0,0.0,0.0001125335693359375,-0.039999838918447495,9.810001373291016
1729480240.020319,0.0,0.0,-0.7081007084118516,0.7061114549039932,0.0,0.0,0.0,-5.626678466796875e-05,0.019999919459223747,9.8100004196167
1729480240.0360005,0.0,0.0,-0.7081007084118516,0.7061114549039932,0.0,0.0,0.0,-0.07983087748289108,-0.060224827378988266,9.810001373291016
1729480240.052617,0.0,0.0,-0.7081007084118516,0.7061114549039932,0.0,0.0,0.0,-0.07988714426755905,-0.04022490605711937,9.810001373291016
1729480240.0689864,0.0,0.0,-0.7081007084118516,0.7061114549039932,0.0,0.0,0.0,0.0,0.0,9.809999465942383
1729480240.0827298,0.0,0.0,-0.7081007084118516,0.7061114549039932,4.654289984890464e-06,-2.0455902822676044e-05,-4.512520093185534e-09,0.0,0.0,9.70441722869873
1729480240.1002822,0.0,0.0,-0.7081007084118516,0.7061114549039932,-5.768032664763054e-05,1.0823361832593972e-05,-8.867895340669319e-10,0.0001125335693359375,-0.039999838918447495,9.779623031616211
1729480240.1164305,0.0,0.0,-0.7081007084118516,0.7061114549039932,-1.3686830784311297e-05,-2.7979081220905548e-05,-2.0395294172666074e-08,0.0001125335693359375,-0.039999838918447495,9.912796020507812
1729480240.1324425,0.0,0.0,-0.7081007084118516,0.7061114549039932,-2.300362788250063e-05,2.35736321347388e-06,5.2946821004510426e-09,-0.039943572133779526,-0.020112453028559685,9.774514198303223
1729480240.14818,0.0,0.0,-0.7081007084118516,0.7061114549039932,-1.8601227243496095e-05,4.286089026525285e-06,-6.5304675386056025e-09,-0.07983087748289108,-0.060224827378988266,9.897316932678223
1729480240.1644657,0.0,0.0,-0.7081007084118516,0.7061114549039932,4.4696771972264474e-05,5.184529263168105e-06,-2.0277333760639958e-08,0.07988714426755905,0.04022490605711937,9.840903282165527
1729480240.1801946,0.0,0.0,-0.7081007084118516,0.7061114549039932,9.718723945952503e-06,-1.5264398933869178e-06,-1.9190601837077502e-08,0.07988714426755905,0.04022490605711937,9.790719032287598
1729480240.196466,0.0,0.0,-0.7081007084118516,0.7061114549039932,-2.751826413866015e-05,3.121953821479537e-05,-5.420733843586804e-09,0.07994341850280762,0.02022498846054077,9.82861328125
1729480240.2125657,0.0,0.0,-0.7081007084118516,0.7061114549039932,1.986679203702214e-05,-3.9454481800525995e-05,-1.6535881899990984e-08,-0.1597742885351181,-0.08044981211423874,9.800891876220703
1729480240.2284226,0.0,0.0,-0.7081007084118516,0.7061114549039932,0.00010780863352540231,3.211602269019791e-05,-1.732888323761092e-08,-5.626678466796875e-05,0.019999919459223747,9.825448036193848
1729480240.2440968,0.0,0.0,-0.7081007084118516,0.7061114549039932,-6.247878440801138e-05,3.5775527177812406e-05,6.955745866173453e-09,-0.07994341850280762,-0.02022498846054077,9.886256217956543
1729480240.2600164,0.0,0.0,-0.7081007084118516,0.7061114549039932,5.996617348609215e-05,1.7222039398529705e-05,-1.3266831465070427e-08,0.07994341850280762,0.02022498846054077,9.80145263671875
1729480240.2763715,0.0,0.0,-0.7081007084118516,0.7061114549039932,-0.00013930520263295192,-4.4873051034929906e-05,-1.1927894277486642e-08,-0.08005594462156296,0.01977485418319702,9.80926513671875
1729480240.292493,0.0,0.0,-0.7081007084118516,0.7061114549039932,-4.504305407443125e-06,2.6123211992275866e-05,4.042612222327388e-09,0.0,0.0,9.79807186126709
1729480240.3080783,0.0,0.0,-0.7081007084118516,0.7061114549039932,6.548356321600451e-05,1.6154698578971445e-05,-2.2810378397832405e-08,-0.07988714426755905,-0.04022490605711937,9.808351516723633
1729480240.325591,0.0,0.0,-0.7081007084118516,0.7061114549039932,3.779916196389168e-05,9.17559797610532e-06,-3.237280510318355e-08,-0.07988714426755905,-0.04022490605711937,9.879006385803223
1729480240.3411455,0.0,0.0,-0.7081007084118516,0.7061114549039932,3.3203526903325896e-05,-1.5703150599956454e-06,-2.133231102626268e-08,0.15988683700561523,0.04044997692108154,9.786375999450684
1729480240.3563852,0.0,0.0,-0.7081007084118516,0.7061114549039932,7.125997976184125e-05,2.0145728209252736e-05,-2.935769015403104e-08,-0.07999967783689499,-0.000225067138671875,9.803582191467285
1729480240.3726892,0.0,0.0,-0.7081007084118516,0.7061114549039932,8.764317346023903e-06,-9.8346927709704e-06,-1.610251224131349e-08,-0.07994341850280762,-0.02022498846054077,9.818859100341797
1729480240.3880038,0.0,0.0,-0.7081007084118516,0.7061114549039932,-5.90188033926742e-05,1.0132777816160656e-05,-6.623390624179241e-09,0.0,0.0,9.750991821289062
1729480240.4055355,0.0,0.0,-0.7081007084118516,0.7061114549039932,4.1910292595833023e-05,-2.057232516934708e-05,-2.7173132532177183e-09,0.04005610570311546,-0.01988738775253296,9.789278984069824
1729480240.4203267,0.0,0.0,-0.7081007084118516,0.7061114549039932,1.1969600763802487e-05,5.1338182143491515e-05,-7.854188952593266e-09,0.039999838918447495,0.0001125335693359375,9.818815231323242
1729480240.436025,0.0,0.0,-0.7081007084118516,0.7061114549039932,-2.580052115829231e-05,-1.6601498015291452e-07,-8.648818734210113e-09,0.15988683700561523,0.04044997692108154,9.817001342773438
1729480240.4520571,0.0,0.0,-0.7081007084118516,0.7061114549039932,4.088621301949666e-05,-1.9524952330078926e-05,-1.4056983025695773e-08,5.626678466796875e-05,-0.019999919459223747,9.796061515808105
1729480240.4691942,0.0,0.0,-0.7081007084118516,0.7061114549039932,-7.696028283526245e-05,7.902773579241056e-07,-1.3792513542822719e-08,-5.626678466796875e-05,0.019999919459223747,9.783228874206543
1729480240.484166,0.0,0.0,-0.7081007084118516,0.7061114549039932,3.150642607906288e-06,5.295891220118748e-07,-1.0901007670810606e-08,-0.07988714426755905,-0.04022490605711937,9.78562068939209
1729480240.5002706,0.0,0.0,-0.7081007084118516,0.7061114549039932,3.8011165830961314e-05,-4.8261927671586044e-05,-1.964804193358431e-08,-0.15971800684928894,-0.10044973343610764,9.812544822692871
1729480240.5159745,0.0,0.0,-0.7081007084118516,0.7061114549039932,2.1788049805903717e-05,-1.881880853125514e-05,-5.8506939476457685e-09,5.626678466796875e-05,-0.019999919459223747,9.768391609191895
1729480240.532409,0.0,0.0,-0.7081007084118516,0.7061114549039932,-7.031870004897174e-05,-8.03909388311033e-06,-6.628632178294293e-09,-0.159943088889122,-0.020450055599212646,9.854070663452148
1729480240.5493636,0.0,0.0,-0.7081007084118516,0.7061114549039932,4.3242688730992224e-05,1.6007939949081986e-05,-1.66105867683492e-08,0.07994341850280762,0.02022498846054077,9.79919147491455
1729480240.5653102,0.0,0.0,-0.7081007084118516,0.7061114549039932,-9.0910426500098e-06,-2.009204003911863e-05,-2.5321439041066576e-08,5.626678466796875e-05,-0.019999919459223747,9.791484832763672
1729480240.5815697,0.0,0.0,-0.7081007084118516,0.7061114549039932,3.127011442845138e-07,2.064406341985393e-06,-1.971206013821281e-08,0.07999967783689499,0.000225067138671875,9.834096908569336
1729480240.5972383,0.0,0.0,-0.7081007084118516,0.7061114549039932,-2.7309053053045215e-05,-7.5480268251783426e-06,-9.645121127069196e-09,0.07994341850280762,0.02022498846054077,9.804424285888672
1729480240.6129339,0.0,0.0,-0.7081007084118516,0.7061114549039932,3.33691787404675e-05,-4.77606665542334e-06,-6.837480120897914e-09,0.11988698691129684,0.04033742845058441,9.781832695007324
1729480240.629178,0.0,0.0,-0.7081007084118516,0.7061114549039932,-1.1498521227488565e-05,-2.403843727633263e-05,-2.5552118311003764e-08,0.15988683700561523,0.04044997692108154,9.838010787963867
1729480240.6453815,0.0,0.0,-0.7081007084118516,0.7061114549039932,1.4336036038783148e-05,6.50243306097681e-06,-9.96724770520782e-09,0.0,0.0,9.84138011932373
1729480240.6603541,0.0,0.0,-0.7081007084118516,0.7061114549039932,6.967245530568627e-05,8.57682563221775e-06,-2.507045511004293e-08,0.0,0.0,9.798975944519043
1729480240.677578,0.0,0.0,-0.7081007084118516,0.7061114549039932,3.4696891470691586e-05,1.0758448797989174e-05,-3.199999320564112e-08,-5.626678466796875e-05,0.019999919459223747,9.80677318572998
1729480240.6930857,0.0,0.0,-0.7081007084118516,0.7061114549039932,4.25977923393362e-05,2.1288011649992755e-05,-1.5543599728249273e-08,0.07999967783689499,0.000225067138671875,9.803848266601562
1729480240.709136,0.0,0.0,-0.7081007084118516,0.7061114549039932,3.984186257228677e-05,1.2904089865204888e-05,-1.3087295514411175e-08,5.626678466796875e-05,-0.019999919459223747,9.821170806884766
1729480240.7254047,0.0,0.0,-0.7081007084118516,0.7061114549039932,0.00011375804293391873,-5.15570580442281e-06,-1.4443433141712316e-08,-0.07999967783689499,-0.000225067138671875,9.8283052444458
1729480240.7414465,0.0,0.0,-0.7081007084118516,0.7061114549039932,-4.443897626000175e-05,-1.39603377242562e-05,-1.5100815627714648e-08,5.626678466796875e-05,-0.019999919459223747,9.820650100708008
1729480240.7572303,0.0,0.0,-0.7081007084118516,0.7061114549039932,2.2465187760254555e-05,1.747432119941889e-05,-1.5762014779334736e-08,0.07994341850280762,0.02022498846054077,9.821810722351074
1729480240.7738075,0.0,0.0,-0.7081007084118516,0.7061114549039932,6.32510381477777e-05,-1.9996771179967447e-06,-1.2128854444480233e-08,-0.07999967783689499,-0.000225067138671875,9.785088539123535
1729480240.7879884,0.0,0.0,-0.7081007084118516,0.7061114549039932,2.659427524414982e-05,7.852883266196545e-05,-1.4749427946506557e-08,-0.2399427741765976,-0.020675107836723328,9.819544792175293
1729480240.8040316,0.0,0.0,-0.7081007084118516,0.7061114549039932,6.241474096250094e-06,-3.0786176698337866e-05,-1.3701626012245217e-08,0.159943088889122,0.020450055599212646,9.766983032226562
1729480240.8214972,0.0,0.0,-0.7081007084118516,0.7061114549039932,4.399185113488237e-05,1.0200895628551372e-05,-1.0393798254648255e-08,-0.07988714426755905,-0.04022490605711937,9.782881736755371
1729480240.8359933,0.0,0.0,-0.7081007084118516,0.7061114549039932,-4.558508165880252e-05,-3.1379334167324094e-05,-1.6906302020412953e-09,0.0,0.0,9.766633987426758
1729480240.8530092,0.0,0.0,-0.7081007084118516,0.7061114549039932,3.798525403008249e-05,-2.1201650379504666e-05,-2.5700408492472317e-08,-5.626678466796875e-05,0.019999919459223747,9.875335693359375
1729480240.868999,0.0,0.0,-0.7081007084118516,0.7061114549039932,7.373630243773336e-06,-1.0946700180919885e-05,-1.7436869430155972e-08,0.0001125335693359375,-0.039999838918447495,9.8080472946167
1729480240.8850508,0.0,0.0,-0.7081007084118516,0.7061114549039932,0.0,0.0,0.0,0.0,0.0,9.782187461853027
1729480240.9000318,0.0,0.0,-0.7081007084118516,0.7061114549039932,0.0,0.0,0.0,0.07988714426755905,0.04022490605711937,9.809999465942383
1729480240.9162934,0.0,0.0,-0.7081007084118516,0.7061114549039932,0.0,0.0,0.0,-0.07977460324764252,-0.08022474497556686,9.810003280639648
1729480240.9323769,0.0,0.0,-0.7081007084118516,0.7061114549039932,0.0,0.0,0.0,-0.07994341850280762,-0.02022498846054077,9.810001373291016
1729480240.948074,0.0,0.0,-0.7081007084118516,0.7061114549039932,0.0,0.0,0.0,-0.15988683700561523,-0.04044997692108154,9.810001373291016
1729480240.9633205,0.0,0.0,-0.7081007084118516,0.7061114549039932,0.0,0.0,0.0,0.0,0.0,9.8100004196167
1729480240.9789968,0.0,0.0,-0.7081007084118516,0.7061114549039932,0.0,0.0,0.0,-0.15983057022094727,-0.06044989824295044,9.810004234313965
1729480240.9950783,0.0,0.0,-0.7081007084118516,0.7061114549039932,0.0,0.0,0.0,-0.07999967783689499,-0.000225067138671875,9.8100004196167
1729480241.01099,0.0,0.0,-0.7081007084118516,0.7061114549039932,0.0,0.0,0.0,0.159943088889122,0.020450055599212646,9.809999465942383
1729480241.0273943,0.0,0.0,-0.7081007084118516,0.7061114549039932,0.0,0.0,0.0,-0.07999967783689499,-0.000225067138671875,9.8100004196167
1729480241.0436425,0.0,0.0,-0.7081007084118516,0.7061114549039932,0.0,0.0,0.0,5.626678466796875e-05,-0.019999919459223747,9.8100004196167
1729480241.0594318,0.0,0.0,-0.7081007084118516,0.7061114549039932,0.0,0.0,0.0,0.08005594462156296,-0.01977485418319702,9.8100004196167
1729480241.0750067,0.0,0.0,-0.7081007084118516,0.7061114549039932,0.0,0.0,0.0,0.159943088889122,0.020450055599212646,9.80999755859375
1729480241.0926776,0.0,0.0,-0.7081007084118516,0.7061114549039932,0.0,0.0,0.0,-0.159943088889122,-0.020450055599212646,9.8100004196167
1729480241.1081345,0.0,0.0,-0.7081007084118516,0.7061114549039932,0.0,0.0,0.0,5.626678466796875e-05,-0.019999919459223747,9.810003280639648
1729480241.1241155,0.0,0.0,-0.7081007084118516,0.7061114549039932,0.0,0.0,0.0,-0.07999967783689499,-0.000225067138671875,9.8100004196167
1729480241.1400242,0.0,0.0,-0.7081007084118516,0.7061114549039932,0.0,0.0,0.0,-0.07999967783689499,-0.000225067138671875,9.8100004196167
1729480241.1553223,0.0,0.0,-0.7081007084118516,0.7061114549039932,0.0,0.0,0.0,0.07988714426755905,0.04022490605711937,9.809999465942383
1729480241.1710193,0.0,0.0,-0.7081007084118516,0.7061114549039932,0.0,0.0,0.0,-0.2397739738225937,-0.08067485690116882,9.810003280639648
1729480241.188081,0.0,0.0,-0.7081007084118516,0.7061114549039932,0.0,0.0,0.0,-0.0001125335693359375,0.039999838918447495,9.8100004196167
1729480241.2030466,0.0,0.0,-0.7081007084118516,0.7061114549039932,0.0,0.0,0.0,-0.07994341850280762,-0.02022498846054077,9.8100004196167
1729480241.2201655,0.0,0.0,-0.7081007084118516,0.7061114549039932,0.0,0.0,0.0,-0.07988714426755905,-0.04022490605711937,9.810003280639648
1729480241.2350187,0.0,0.0,-0.7081007084118516,0.7061114549039932,0.0,0.0,0.0,0.0,0.0,9.8100004196167
1729480241.250978,0.0,0.0,-0.7081007084118516,0.7061114549039932,0.0,0.0,0.0,0.07994341850280762,0.02022498846054077,9.80999755859375
1729480241.2679808,0.0,0.0,-0.7081007084118516,0.7061114549039932,0.0,0.0,0.0,0.07988714426755905,0.04022490605711937,9.809999465942383
1729480241.2833157,0.0,0.0,-0.7081007084118516,0.7061114549039932,0.0,0.0,0.0,0.07977460324764252,0.08022474497556686,9.80999755859375
1729480241.300192,0.0,0.0,-0.7081007084118516,0.7061114549039932,0.0,0.0,0.0,0.15988683700561523,0.04044997692108154,9.809999465942383
1729480241.3160758,0.0,0.0,-0.7081007084118516,0.7061114549039932,0.0,0.0,0.0,-0.15983057022094727,-0.06044989824295044,9.810003280639648
1729480241.3335333,0.0,0.0,-0.7081007084118516,0.7061114549039932,0.0,0.0,0.0,-0.07994341850280762,-0.02022498846054077,9.810001373291016
1729480241.3481383,0.0,0.0,-0.7081007084118516,0.7061114549039932,0.0,0.0,0.0,-0.07994341850280762,-0.02022498846054077,9.8100004196167
1729480241.3652847,0.0,0.0,-0.7081007084118516,0.7061114549039932,0.0,0.0,0.0,0.15988683700561523,0.04044997692108154,9.80999755859375
1729480241.379969,0.0,0.0,-0.7081007084118516,0.7061114549039932,0.0,0.0,0.0,-0.07994341850280762,-0.02022498846054077,9.8100004196167
1729480241.396266,0.0,0.0,-0.7081007084118516,0.7061114549039932,0.0,0.0,0.0,-0.23983022570610046,-0.06067495048046112,9.810001373291016
1729480241.4123774,-1.515662042702515e-06,7.592058600648663e-07,-0.7081007084114395,0.7061114549023717,-1.21229187661115e-06,-0.00927004079726841,-0.0003137421173388741,0.4399729371070862,0.02124801278114319,9.611860275268555
1729480241.4292567,-1.515662042702515e-06,7.592058600648663e-07,-0.7081007084114395,0.7061114549023717,1.6732483536626847e-05,0.001429813537264804,-0.0001054960215814075,0.1599748730659485,0.020460575819015503,9.873241424560547
1729480241.4453309,-1.515662042702515e-06,7.592058600648663e-07,-0.7081007084114395,0.7061114549023717,-9.711508473446597e-05,0.006646009183680457,0.00014876788225816036,0.07991873472929001,0.040235359221696854,9.812525749206543
1729480241.4602396,-1.515662042702515e-06,7.592058600648663e-07,-0.7081007084114395,0.7061114549023717,0.00016052528699850158,0.007927637652279818,0.00011033415475132904,-0.15991142392158508,-0.020439565181732178,9.841381072998047
1729480241.4776242,-1.515662042702515e-06,7.592058600648663e-07,-0.7081007084114395,0.7061114549023717,-4.046586928435045e-05,0.008829115067252393,0.00011591216168058236,-0.07996809482574463,-0.00021460652351379395,9.814260482788086
1729480241.4933095,-1.515662042702515e-06,7.592058600648663e-07,-0.7081007084114395,0.7061114549023717,0.0001514822899601766,0.009519996372421785,-1.5586322770730187e-05,-0.08002432435750961,0.0197853222489357,9.823793411254883
1729480241.509515,-8.403646207400542e-07,8.580553797669327e-08,-0.7081007084118455,0.706111454903494,-4.9550554488996315e-06,0.01017118637443707,-6.149670240235531e-05,0.0001253560185432434,-0.0399894192814827,9.781496047973633
1729480241.525118,-8.403646207400542e-07,8.580553797669327e-08,-0.7081007084118455,0.706111454903494,-0.00018690055606639507,0.010601888498544555,-6.68841944115222e-05,-0.11998666077852249,-0.00032714754343032837,9.804374694824219
1729480241.5416088,-1.6506724361117005e-07,-5.875948290722055e-07,-0.7081007084116075,0.7061114549039741,-0.00012118749949479411,0.011042006311897272,0.000156689832393909,-5.2266254897404e-06,1.0453250069986098e-05,9.812822341918945
1729480241.5572424,7.63466756422725e-07,-1.513520226981905e-06,-0.7081007084102289,0.7061114549035856,-0.00016433058282027137,0.011722808252213602,8.62032527964079e-05,-0.16011716425418854,0.03956024348735809,9.891982078552246
1729480241.5733418,7.63466756422725e-07,-1.513520226981905e-06,-0.7081007084102289,0.7061114549035856,-7.300098180781694e-05,0.014509054357299378,-3.542565272818844e-05,-0.23997396230697632,-0.02066473662853241,9.75141429901123
1729480241.589523,2.2406799342156277e-06,-2.9865833641013845e-06,-0.7081007084055261,0.7061114549004652,-4.400102578836095e-05,0.014854664263839338,4.423987292627564e-05,-0.08012878149747849,0.019785262644290924,9.767374992370605
1729480241.6056406,5.1106940901106144e-06,-5.848534979697108e-06,-0.7081007083875794,0.7061114548856177,2.336538345952604e-05,0.07249880949136894,0.0002594602946888095,-1.680090069770813,-0.024715662002563477,9.915346145629883
1729480241.6211922,9.626745306552528e-06,-1.0351899027653117e-05,-0.7081007083357866,0.7061114548387678,0.00020034332217822557,0.07351855540043054,0.00043129117789759774,-2.0802125930786133,-0.02584099769592285,9.824145317077637
1729480241.6373699,1.9630216032223204e-05,-2.0326034607083683e-05,-0.7081225214478196,0.7060895791752556,0.00018661624277208666,0.062283834700791754,-0.004838577461554107,-0.9603919386863708,-0.0026914477348327637,9.77711009979248
1729480241.653634,3.3372650198246736e-05,-3.440109435677504e-05,-0.7081643122236171,0.706047664535251,0.0030290955154080963,0.20912410398544554,-0.4605300938214583,-7.92144775390625,0.15630674362182617,9.852628707885742
1729480241.6690931,5.3974500076371726e-05,-5.493457614734461e-05,-0.7082084500172198,0.7060033890805008,0.0010181784340079164,0.3028302306329876,-0.8549762397931921,-9.281595230102539,0.011075019836425781,9.852945327758789
1729480241.6839848,8.169427637249189e-05,-8.293352919896907e-05,-0.7082538056558381,0.7059578834619649,-0.00039244239258483417,0.34916076447493277,-0.5276478014742348,-9.162165641784668,-0.049719810485839844,9.791478157043457
1729480241.7013555,0.00014601532398329933,-0.00014741372203984666,-0.708273911665333,0.7059376905952873,0.0002185927338668534,0.37238154002312496,-0.05126021620529529,-7.124018669128418,-0.02349853515625,9.775985717773438
1729480241.716357,0.00017182734985738568,-0.0001727672824716838,-0.7082684068000688,0.7059432020748696,-0.0003939364964657745,0.3536859782434778,-0.021794454958162984,-5.204415798187256,-0.11707878112792969,9.791425704956055
1729480241.7322788,0.00021898665789500834,-0.00021976392432653265,-0.7082810368484994,0.7059305040791733,-0.0011442434489622533,0.3349198200554562,0.02750144986815222,-8.005627632141113,0.03366279602050781,9.804186820983887
1729480241.7480621,0.0002472565419715958,-0.0002483085353084657,-0.7082916963096662,0.7059197901644702,0.0012143596096606654,0.3958461479886013,-0.09864287265379353,-12.64697551727295,-0.0023736953735351562,9.860183715820312
1729480241.7639923,0.00028048357022888136,-0.00028142055899039244,-0.708296383773193,0.7059150620756391,0.00016814004745867328,0.3899217059355557,-0.040327908134254783,-11.887579917907715,-0.07998371124267578,9.786861419677734
1729480241.7804253,0.0003031130203027825,-0.0003039724549699053,-0.7082980663576681,0.7059133551061574,-0.000678083038108883,0.29029088377091683,-0.00830798047147168,-4.888190269470215,-0.0764312744140625,9.805354118347168
1729480241.7964962,0.0003366959813883519,-0.00033706503673824634,-0.7082994142510208,0.7059119724120267,-0.0006141033754929043,0.19850003821618162,4.1105333186832786e-05,-5.689466953277588,0.04084300994873047,9.75367546081543
1729480241.81363,0.0003499093561454611,-0.00035023556941282615,-0.7082977158546154,0.7059136637108131,-0.0009587211036744265,0.18002915230763084,0.013884774900407548,-6.1696038246154785,-0.04074811935424805,9.799025535583496
1729480241.8283346,0.00036257631364068057,-0.00036285666091636823,-0.7083008583865674,0.7059104977844657,0.00012835953162863807,0.1784720292594266,-0.0461574379052743,-6.970490455627441,0.11649131774902344,9.79936408996582
1729480241.8440208,0.00039311846346931254,-0.00039292098011743865,-0.7082997142649621,0.7059116133363657,0.00043673190048413565,0.2236619882110458,0.0003709926585330644,-9.930830955505371,-0.033486366271972656,9.789725303649902
1729480241.8610044,0.0004100899776167627,-0.00040983543671779734,-0.7082995636183423,0.7059117452197482,0.00020914786290519513,0.22360226407644784,0.00034952848995370596,-9.2913236618042,-0.031322479248046875,9.805495262145996
1729480241.8772993,0.00042668161526602264,-0.0004263711817793247,-0.7082995537913738,0.7059117354523549,-0.0003360132906528929,0.2076107368366117,0.0003425606777246264,-8.412096977233887,0.07164859771728516,9.7821683883667
1729480241.8931289,0.0004528989844258118,-0.00045250012605680903,-0.7082995374710204,0.7059117192287466,-1.1059036761602677e-05,0.15745249561468258,0.00029146169446295293,-7.4526238441467285,0.01489114761352539,9.781499862670898
1729480241.9093726,0.00046311566320404333,-0.00046268246495506567,-0.7082994838493814,0.7059117598025401,0.000102212713712183,0.12994344182499346,0.00027926498764245343,-6.972711563110352,-0.0434870719909668,9.786785125732422
1729480241.9252822,0.00047101041903123853,-0.0004705506071153351,-0.7082994786308912,0.7059117546142145,-0.0002175922178751523,0.10465029083308419,0.0002673325056311165,-6.573278427124023,0.05786323547363281,9.793133735656738
1729480241.9402184,0.0004774275508288029,-0.0004769460651803841,-0.7082994743243167,0.7059117503323495,-0.00014550170561978336,0.05942835539037024,0.00026026464180286683,-6.413094997406006,-0.08159637451171875,9.774788856506348
1729480241.9574997,0.0004857022868164969,-0.0004851929064723836,-0.7082994686852385,0.7059117447254586,0.00012964686220462679,0.04015474549651777,0.00025575189779863174,-6.093545436859131,0.01948404312133789,9.787577629089355
1729480241.9696627,0.00048800118552499126,-0.00048710808436773484,-0.7082994673609561,0.7059117431497672,-0.0016577466090162661,0.024056743344844797,0.0002581714008065837,-6.0934882164001465,-0.020520687103271484,9.802253723144531
1729480241.9882257,0.000488929995447313,-0.00048803372210750375,-0.7082994667194618,0.7059117425113932,-0.00027195608804755726,0.010517409930785274,0.00025926000910474157,-6.013373851776123,-0.060250282287597656,9.798083305358887
1729480242.0042071,0.000488929995447313,-0.00048803372210750375,-0.7082994667194618,0.7059117425113932,0.00030288120358771143,-0.009938287929415545,0.00025625541268247613,-5.773609638214111,0.020559310913085938,9.77237319946289
1729480242.0450087,0.000483061672895994,-0.000482185223168745,-0.7082994707521814,0.7059117465243163,-0.00030726513115801504,-0.028215971698678857,0.0002630219231784337,-5.893456935882568,0.04015302658081055,9.729228019714355
1729480242.045913,0.0004821328835191285,-0.00048125956480346744,-0.7082994713859946,0.7059117471550069,-7.5005348844524786e-06,-0.0288643861025805,0.0002626656977972218,-5.293552398681641,-0.01781940460205078,9.96590805053711
1729480242.0623982,0.00047966510981476394,-0.0004791760812034061,-0.7082994728089979,0.7059117488257023,-0.0010132759056485812,-0.03146139544675926,0.00026494872417068076,-6.252592086791992,-0.18105506896972656,9.706589698791504
1729480242.0809643,0.00047683649084049776,-0.0004763570388418619,-0.7082994747233862,0.7059117507291602,-0.0010529330245063065,-0.0335433391584103,0.0002736135053200596,-5.693253993988037,0.020835399627685547,9.751863479614258
1729480242.096008,0.00047400791300491145,-0.0004735379551872601,-0.708299476626506,0.7059117526213323,0.001396880406973389,-0.03444588462420401,0.0002773116886094887,-5.413205146789551,0.0017809867858886719,9.823132514953613
1729480242.110975,0.00046836980511866813,-0.00046754292372462315,-0.7082994806352628,0.7059117563585106,0.0011947861818096866,-0.03500945193695609,0.0002777935256468462,-5.573000907897949,0.0012350082397460938,9.79191780090332
1729480242.1281328,0.0004655412066874466,-0.000464723860689289,-0.7082994825030557,0.7059117582170038,0.0017954326172142112,-0.03422738527182972,0.00028193665194643883,-5.333081245422363,0.04204511642456055,9.809109687805176
1729480242.1438236,0.00046254375383637006,-0.00046173647130719284,-0.7082994844700466,0.7059117601741545,2.9415170156011945e-06,-0.0340776280381919,0.000290093306458574,-5.6529011726379395,0.020965099334716797,9.788349151611328
1729480242.1601894,0.0004596960458627629,-0.00045927433431851853,-0.7082994860824872,0.7059117620226454,0.001054040262203789,-0.0326025172858274,0.0002912658121914527,-5.332891941070557,0.022050857543945312,9.83619213104248
1729480242.1754024,0.00045707847619815326,-0.0004566656493921732,-0.7082994407817176,0.7059118108687921,-0.0001946837367185031,-0.032037159049450176,0.00029902291168450623,-5.372704029083252,0.0019159317016601562,9.799880027770996
1729480242.1925757,0.000454249917830259,-0.00045384654625088935,-0.708299536603744,0.7059117183665718,0.0010183585268864225,-0.030617380166480055,0.0003005843158989508,-5.492796897888184,0.061509132385253906,9.774797439575195
1729480242.2082205,0.0004517590897000084,-0.00045136407414456375,-0.7082995382007867,0.7059117199542375,-0.0005376672887802469,-0.029662781188691437,0.0003100511513132393,-5.292613506317139,0.0021848678588867188,9.842371940612793
1729480242.224177,0.00044686178635592336,-0.0004464833215586788,-0.7082995413151684,0.705911723050347,-0.000500301351543517,-0.02709802848008512,0.0003193441210188659,-5.332663059234619,0.06205034255981445,9.829755783081055
1729480242.23899,0.0004446011935037456,-0.00044385429635455904,-0.7082995429779029,0.7059117244673276,-0.00030418520943022853,-0.027150232069478777,0.00031969615152834175,-5.412311553955078,-0.01822519302368164,9.818756103515625
1729480242.2561398,0.00044211032427297437,-0.0004413718654439565,-0.7082995445396658,0.7059117260212069,-9.021986202499264e-05,-0.03216387773485242,0.0003123474657897131,-5.092160224914551,-0.03714418411254883,9.805625915527344
1729480242.2707732,0.0004387559911044646,-0.00043840481151038513,-0.7082995463956169,0.7059117281007341,-0.00024230162781686346,-0.04339431956110002,0.0002990120727612628,-4.65215539932251,-0.015653610229492188,9.816923141479492
1729480242.2884405,0.00043387781766907914,-0.0004331671122666625,-0.7082995496391746,0.705911731094784,-0.00019944952789230594,-0.06331384590392819,0.0002732491507464151,-4.172094345092773,0.025962352752685547,9.770586013793945
1729480242.3033218,0.00042762953471622275,-0.0004269398935254855,-0.7082995534457129,0.7059117348818561,-8.378320914504898e-05,-0.08849830083849904,0.0002379064704967572,-3.1318016052246094,-0.030525684356689453,9.833553314208984
1729480242.321198,0.0004040720358855976,-0.0004034616506227104,-0.7082997082983854,0.7059116071923656,0.00023199964815564795,-0.16905098391858406,0.00013212577084958599,-1.1710116863250732,-0.0439070463180542,9.7662992477417
1729480242.3359423,0.0003863403762988485,-0.0003857899803501977,-0.7082995302151333,0.7059118056841281,-0.00046649391618393726,-0.21882586743313298,6.689075378394175e-05,0.029359081760048866,-0.019854363054037094,9.80701732635498
1729480242.3523011,0.00036632908436433305,-0.00036584614017298164,-0.708299587867719,0.7059117691227589,-0.00010995003738133807,-0.26490552522521243,8.897765888904626e-06,1.3496856689453125,0.04460299015045166,9.824267387390137
1729480242.3682287,0.00034272926081008973,-0.0003423258557238395,-0.7082995997053377,0.7059117808954039,5.258712052380911e-05,-0.30782600708274943,-4.450684654890494e-05,2.0707077980041504,-0.052965402603149414,9.788942337036133
1729480242.3825643,0.00031634308771663497,-0.00031602853012708816,-0.7082997530062773,0.7059116516563995,-0.00020127713710381325,-0.34508292809702357,-9.7520241600897e-05,2.951232671737671,0.010007381439208984,9.786346435546875
1729480242.4011452,0.0002499341949556965,-0.00024984365361892035,-0.7082995916276544,0.7059118667448118,-0.00024305868491725062,-0.4010637455038299,-0.00018758893191276856,3.9529621601104736,0.03338265419006348,9.830421447753906
1729480242.4163334,0.00021447114338387507,-0.00021450012984233565,-0.7082996032912044,0.7059118783313858,-3.500471949631535e-05,-0.416760107185901,-0.0002215840421861041,4.3942341804504395,-0.04513072967529297,9.798476219177246
1729480242.4321136,0.0001797679840884058,-0.00017991395713128167,-0.7082996129859264,0.7059118879565827,-0.00010565448872363474,-0.42378999934785727,-0.0002475372185699987,4.754974842071533,0.016084671020507812,9.826555252075195
1729480242.448987,0.00014278507866242188,-0.00014305570455535726,-0.7082996684449534,0.705911849190999,-0.00023673542384969977,-0.4268807133081409,-0.0002676521496463819,5.155947208404541,0.03743553161621094,9.78824234008789
1729480242.4656904,7.544744136498427e-05,-7.594508089040312e-05,-0.7082996788900623,0.7059118595294054,8.751179874078838e-05,-0.41332049328899134,-0.0002901830141814758,5.27793550491333,-0.002159595489501953,9.81694221496582
1729480242.4814894,4.150421326285187e-05,-4.211628218093364e-05,-0.7082996817283851,0.7059118623221228,-6.840861340590895e-05,-0.40118530152671494,-0.00029520057582475275,5.478878498077393,-0.001483917236328125,9.793051719665527
1729480242.497556,9.080829013064112e-06,-9.80220299789633e-06,-0.7082996829206079,0.705911863475903,-0.000521442254448161,-0.38430371526066154,-0.0002969372527234727,5.439640045166016,0.03838062286376953,9.819120407104492
1729480242.5138235,-2.1316094347573195e-05,2.0492245646186965e-05,-0.708299682690339,0.7059118632141387,0.0005163996538499875,-0.3660003290693348,-0.0002964616168008554,5.400550365447998,0.018246173858642578,9.824316024780273
1729480242.529097,-5.069978443078576e-05,4.9776877453060906e-05,-0.7082996812277519,0.7059118617252861,-0.00012753243840883183,-0.3459818983856736,-0.00029274331897117644,5.281431198120117,-0.00215911865234375,9.808385848999023
1729480242.5440636,-7.915468621767518e-05,7.813585209532797e-05,-0.7082996786496052,0.7059118591256208,0.00022366201489147224,-0.32429434022359066,-0.00028875574164216865,5.482353210449219,-0.04148387908935547,9.805556297302246
1729480242.5613132,-0.00012783197881722442,0.0001266490488636302,-0.7082996715887924,0.7059118520369326,0.0007029758759824061,-0.3014671810067469,-0.000283346493621203,5.36272668838501,0.05811023712158203,9.839591026306152
1729480242.5775213,-0.0001515162411794831,0.00015025346686014805,-0.7082996669434872,0.7059118473821427,-0.0015959964295351279,-0.25842284860965054,-0.0002659978850414575,5.324141979217529,0.017975807189941406,9.775842666625977
1729480242.593323,-0.00017178086465282572,0.0001704497742522191,-0.7082996623401975,0.7059118427728573,0.00018585585061839385,-0.2352323286650474,-0.0002592501863305522,5.124806880950928,-0.0026988983154296875,9.850506782531738
1729480242.6088722,-0.00019170772401273334,0.00019030946106472212,-0.70829961024935,0.70591188483484,-0.001340437964828225,-0.21319627077273506,-0.0002504725344708596,5.085257530212402,0.017165184020996094,9.784258842468262
1729480242.6251743,-0.00021370326998075356,0.00021223087902621975,-0.7082996039778771,0.7059118785611621,-0.0002221945914369773,-0.18896122547300923,-0.0002325260915309688,5.285790920257568,0.027840137481689453,9.71872615814209
1729480242.6413429,-0.00022818401454875964,0.0002266628080435843,-0.7082995994761955,0.7059118740592821,0.0010737671025068288,-0.1667809998963994,-0.00023104183647932182,4.526466369628906,-0.004725933074951172,9.986733436584473
1729480242.654695,-0.00024089161745058648,0.00023932757277322157,-0.7082995952818439,0.7059118698655786,-0.0005376105928740505,-0.14895972901094032,-0.00022330240234674675,4.726706027984619,-0.004050254821777344,9.813335418701172
1729480242.6731138,-0.00025245936901964564,0.0002508562876278609,-0.7082995912655041,0.7059118658504826,-0.00029411168092045143,-0.13159146508609704,-0.00021590111135324193,4.687014579772949,-0.004185676574707031,9.795510292053223
1729480242.6891806,-0.00026335157944756225,0.00026171182070446156,-0.7082995873109906,0.7059118618977505,0.0006566719958864798,-0.11521617993248402,-0.00021001080794803733,4.687301158905029,-0.004185676574707031,9.775768280029297
1729480242.704119,-0.0002723862185327606,0.00027071598284928713,-0.7082995839038174,0.7059118584924634,0.0004047087186430895,-0.0991075589710858,-0.0002001089434906384,4.447463512420654,0.035003662109375,9.836338996887207
1729480242.7211967,-0.00028674030764760006,0.0002850217039519445,-0.7082995782535421,0.7059118528460041,0.0012427809339315876,-0.07072358062708049,-0.00018574656248487327,4.327907085418701,0.014598846435546875,9.807333946228027
1729480242.7359915,-0.00029254327218853623,0.0002904291558504114,-0.7082995760414976,0.7059118504804789,0.0019323365554119766,-0.058654429590363,-0.00017928708533386894,4.327997207641602,0.034604549407958984,9.80981159210205
1729480242.7531245,-0.0002967037488660104,0.0002949515577500553,-0.7082995741605523,0.705911848756234,0.0019323365554119766,-0.058654429590363,-0.00017928708533386894,4.327997207641602,0.034604549407958984,9.80981159210205
1729480242.769543,-0.0002999123049127923,0.00029814929754190886,-0.7082995728126407,0.7059118474094599,0.0006502353430065361,-0.03682249030057094,-0.00016276770649245362,4.048300743103027,0.013653755187988281,9.839431762695312
1729480242.7839541,-0.00030227658897832225,0.00030050545118850004,-0.7082997598058111,0.7059116577762176,-0.000914038059485056,-0.02781876351492022,-0.00015264511622193762,4.008344650268555,0.013519763946533203,9.81416130065918
1729480242.7999637,-0.0003040919715230822,0.00030231469242155285,-0.7082997590306815,0.7059116570017653,-0.0018720854823917371,-0.020026815007671575,-0.00014789811077808312,3.848376750946045,0.012979269027709961,9.791455268859863
1729480242.8164282,-0.00030540071862719453,0.00030361902695778006,-0.708299758468982,0.7059116564405701,-0.0014912057196176617,-0.004126915022355419,-0.00013728550216756915,3.8083698749542236,0.03284406661987305,9.819953918457031
1729480242.832034,-0.00030540071862719453,0.00030361902695778006,-0.708299758468982,0.7059116564405701,-0.00038682835144681726,0.002116831078959162,-0.00013164240958864738,3.568512439727783,-0.007966041564941406,9.827143669128418
1729480242.848057,-0.00030540071862719453,0.00030361902695778006,-0.708299758468982,0.7059116564405701,0.00018429171061803447,0.007988763343029469,-0.00012794648006571001,3.5682923793792725,0.052033185958862305,9.807340621948242
1729480242.8644242,-0.000304429721624755,0.00030265130376597654,-0.7082997588859545,0.7059116568571677,0.0006668589162086497,0.013078520761181798,-0.00012428104804194676,3.2883505821228027,0.031087875366210938,9.825721740722656
1729480242.8803058,-0.0003030365036815008,0.00030126280376549915,-0.7082997594819064,0.7059116574525982,-2.3238651433910572e-05,0.017801223880038707,-0.0001192508236181498,3.4485599994659424,-0.048371315002441406,9.801210403442383
1729480242.8962007,-0.00030126336169810215,0.000299495640102401,-0.7082997602364193,0.7059116582064496,-0.0010472400885135273,0.022332782587497754,-0.00011400616568883981,3.208319664001465,0.010817527770996094,9.813116073608398
1729480242.9122682,-0.0002961780041752018,0.00029480357687761767,-0.7082995742231099,0.7059118489760617,-0.0006780163370427697,0.030437113865201964,-0.00010846038240939734,3.128206491470337,-0.009458541870117188,9.757929801940918
1729480242.9289775,-0.0002937907228489486,0.0002920483311633704,-0.7082995753717324,0.7059118499664154,0.0005552130042213783,0.03288053066444138,-0.00010396057476427368,3.1679575443267822,0.07068109512329102,9.870043754577637
1729480242.9442635,-0.0002908776865403449,0.00028914511489311204,-0.7082995765709278,0.7059118511646609,0.0003081622604972403,0.035452273644776384,-0.0001010338049375085,3.0479538440704346,0.030276060104370117,9.798568725585938
1729480242.958675,-0.00028771133771534534,0.00028598944003974374,-0.7082995778608144,0.705911852453561,0.00045078248006092455,0.03779492514343828,-9.734722268311338e-05,2.8880786895751953,-0.030263662338256836,9.809560775756836
1729480242.9750698,-0.0002843761035900477,0.0002826654697828905,-0.7082995792041852,0.7059118537959524,-0.0003684900397435102,0.04036455369997749,-9.230485658087546e-05,2.9679174423217773,-0.009994029998779297,9.808938026428223
1729480242.991047,-0.0002808298077843594,0.00027913110820204634,-0.7082995806153574,0.7059118552061243,-0.0001295101250190943,0.041968317468661524,-8.825233690527087e-05,2.8078157901763916,-0.010534048080444336,9.803488731384277
1729480243.008197,-0.00027365274778774046,0.00027197826312348413,-0.7082995834169608,0.7059118580059112,-0.00021489749480417073,0.04463767412420019,-8.053046391275849e-05,2.6876132488250732,-0.01093912124633789,9.797694206237793
1729480243.0236945,-0.00026981093220786986,0.00026814937798525743,-0.7082995848867628,0.7059118594748295,0.0005104532538059773,0.04611794086897525,-7.86641628718846e-05,2.6873066425323486,0.04906034469604492,9.800525665283203
1729480243.0404882,-0.0002660113032861792,0.00026436257843773757,-0.7082995863199135,0.7059118609071907,-0.0005657284272941567,0.0471783077272999,-7.522399024932582e-05,2.8074235916137695,-0.010534048080444336,9.827603340148926
1729480243.055416,-0.00026216947492847613,0.0002605336600363564,-0.7082995877482805,0.7059118623348062,0.0008936208631477424,0.04806039597611663,-7.313808376480473e-05,2.487233877182007,0.008384943008422852,9.804266929626465
1729480243.0720742,-0.00025824320122447546,0.00025662064267934815,-0.7082995891864903,0.7059118637723437,-0.00013315533828219195,0.04895437702502139,-7.098941053486677e-05,2.207012414932251,0.007439613342285156,9.800926208496094
1729480243.0873888,-0.0002498840493775643,0.00024828967008747293,-0.7082995921760026,0.7059118667606531,-0.0005224661158130017,0.04937621124238909,-7.106713290995126e-05,2.5668790340423584,0.008655071258544922,9.7839994430542
1729480243.1035206,-0.00024524007867264677,0.00024366135451571347,-0.7082995937942143,0.7059118683783402,0.0003529320160725583,0.05008351935261556,-6.545582755784915e-05,2.326688289642334,0.027844667434692383,9.789416313171387
1729480243.1190238,-0.00024110273299268178,0.00023953795610238358,-0.7082995952102434,0.7059118697939885,-0.0002178056612867152,0.0496494755050958,-6.167986978312767e-05,2.2468314170837402,-0.0324249267578125,9.86956787109375
1729480243.136607,-0.00023717644653018356,0.0002356249054119268,-0.7082995965316871,0.705911871115146,-0.00010062189328537828,0.04960633992564026,-5.927104285401947e-05,2.1664199829101562,0.047304391860961914,9.821500778198242
1729480243.1514783,-0.00023337681756871895,0.00023183810578013137,-0.708299597789773,0.7059118723730317,6.366283255194014e-05,0.04944353596347066,-5.760485152526179e-05,2.3263742923736572,0.027844667434692383,9.810768127441406
1729480243.1674385,-0.00022518654063476089,0.00022367543881298665,-0.7082996004323293,0.7059118750153751,0.0005922621113940695,0.049895062160418745,-5.667856001093983e-05,2.0863165855407715,0.0070343017578125,9.786700248718262
1729480243.2123907,-0.0002124789479069199,0.00021101066369489575,-0.7082996043449192,0.7059118789282607,9.201745575674893e-05,0.04869740783276619,-5.2155058505661136e-05,1.9262266159057617,-0.053505659103393555,9.866059303283691
1729480243.2158432,-0.00021095910856893892,0.00020949596836461693,-0.7082996047975972,0.7059118793810324,-0.0003142387276201716,0.04742052264373081,-5.1229108964578524e-05,1.2862216234207153,-0.07566642761230469,10.020926475524902
1729480243.2314858,-0.00020661065754391035,0.00020516217625656433,-0.7082996060747699,0.7059118806585163,-0.0005730755497265484,0.04782095248898273,-4.5640015588594255e-05,1.7657891511917114,-0.0540463924407959,9.610417366027832
1729480243.2491329,-0.00020221996595768478,0.00020078630655634175,-0.7082996073372565,0.7059118819214142,-0.0001831677976540236,0.04739214467515286,-4.351429690523673e-05,1.8855772018432617,0.006358742713928223,9.8043212890625
1729480243.2644796,-0.0001985470252636756,0.00019712572701593748,-0.7082996083724665,0.7059118829570281,0.00015466976715707096,0.04669792998420445,-4.3169281732499546e-05,1.845391869544983,0.04622364044189453,9.895485877990723
1729480243.281595,-0.00019487407427775432,0.00019346515779159948,-0.7082996093886272,0.7059118839736628,-0.0005222626775613559,0.046062362205636254,-4.201132777517727e-05,1.76522958278656,0.04595339298248291,9.786524772644043
1729480243.296005,-0.0001910744336672957,0.00018967834668478665,-0.7082996104197893,0.7059118850053883,-0.00021944984256641066,0.045664907227932997,-4.173417312067929e-05,1.8451926708221436,0.02622365951538086,9.78825569152832
1729480243.3133392,-0.00018377075946085386,0.0001823992525473077,-0.7082996123446654,0.7059118869315187,-0.00022987521919993597,0.04431399386067166,-4.0688966111927025e-05,1.6851396560668945,-0.014316558837890625,9.813227653503418
1729480243.3301473,-0.00018022443142607042,0.00017886489994825382,-0.7082996132521242,0.7059118878396887,5.2183579073823e-05,0.04370542000355956,-3.937594846033104e-05,1.6849761009216309,0.005683541297912598,9.81738567352295
1729480243.3453913,-0.0001767625626722597,0.00017541470138390485,-0.7082996141208495,0.7059118887091609,0.00024809461540881275,0.04322545580707402,-3.64425182976185e-05,1.604871153831482,0.0054132938385009766,9.798840522766113
1729480243.3620992,-0.00017013435615730155,0.0001688088164646998,-0.7082996627358563,0.7059118431689303,0.00022601989757858111,0.042371382006024916,-3.4883191977714e-05,1.6047940254211426,0.005413413047790527,9.824936866760254
1729480243.3772008,-0.00016684136734431535,0.00016552691866369954,-0.7082996635156875,0.7059118439496261,-0.0001127648223713238,0.04125436926730346,-3.277451658922813e-05,1.4447412490844727,-0.035126447677612305,9.81640338897705
1729480243.3934991,-0.0001635061379485048,0.00016220294329939188,-0.7082996642899115,0.7059118447247834,-0.00015247530208193993,0.040626512131977974,-3.1532772674488874e-05,1.4445710182189941,-0.015126705169677734,9.79443645477295
1729480243.4089403,-0.00016033980539969018,0.00015904727477910645,-0.7082996650104012,0.7059118454462034,5.437137404234272e-05,0.039948562496001316,-3.0094716579034212e-05,1.3643611669540405,0.02460300922393799,9.821517944335938
1729480243.4252753,-0.00015426041434591967,0.00015298838887232367,-0.7082996663540636,0.7059118467917929,-0.00018606595897665106,0.03879158581351801,-2.8167293521180333e-05,1.2842583656311035,0.004333019256591797,9.816439628601074
1729480243.4409313,-0.00015109406512027454,0.00014983271404051473,-0.7082996670332231,0.7059118474720243,-0.0002259431913525507,0.03807430922896089,-2.736329489413827e-05,1.28422212600708,-0.015667080879211426,9.779003143310547
1729480243.45729,-0.00014775884724356725,0.00014650875011173399,-0.7082996677332944,0.7059118481732787,0.0004883952112422741,0.037555861852381224,-2.660341081497248e-05,1.4041937589645386,-0.03526151180267334,9.77110767364502
1729480243.4727278,-0.00014480359057179892,0.00014356343562552833,-0.7082996683404941,0.7059118487815644,0.00017445330336630712,0.036737232997864785,-2.5264298976770025e-05,1.243950605392456,0.024197697639465332,9.869584083557129
1729480243.490297,-0.00013910417346086178,0.0001378832323848352,-0.7082996694766918,0.7059118499199829,9.056003746217102e-05,0.03541777585338253,-2.2679668490643484e-05,1.2038425207138062,0.004062771797180176,9.823256492614746
1729480243.5063486,-0.0001363600066410468,0.00013514832700699,-0.708299670007392,0.7059118504518095,-5.069614529949406e-05,0.034652914728260105,-2.245338805505295e-05,1.0438183546066284,-0.016477465629577637,9.783467292785645
1729480243.5219903,-0.00013361583861500853,0.00013241339980891474,-0.7082996705274649,0.7059118509730404,-0.00029744673422612167,0.03407014751362728,-2.1230612255989697e-05,1.2836158275604248,0.024332761764526367,9.809298515319824
1729480243.5369635,-0.00013087167694563286,0.00012967848925512606,-0.7082996710369026,0.7059118514836744,-8.807875780275232e-05,0.033724802743825125,-2.1416930675896076e-05,1.0438110828399658,-0.05647730827331543,9.808699607849121
1729480243.5529203,-0.00012804305595954062,0.00012685942468707492,-0.7082996715508886,0.7059118519989344,-0.0004559251322582681,0.03295895444292422,-2.148490844210306e-05,1.1634533405303955,0.02392756938934326,9.785385131835938
1729480243.569348,-0.0001255099880739108,0.00012433489627786083,-0.708299672001586,0.7059118524508016,-0.0004268568076460459,0.03221403026646309,-2.082621750134921e-05,1.1232727766036987,0.06379234790802002,9.853766441345215
1729480243.5851948,-0.00011981056455289499,0.00011865467638464322,-0.7082996729825383,0.7059118534344961,0.00021841931109495855,0.03176552562780994,-2.0087558561239137e-05,1.1633652448654175,0.00392758846282959,9.760183334350586
1729480243.6021535,-0.00011723527154587678,0.00011608805489432557,-0.7082996734107412,0.7059118538639878,0.0001272556289844612,0.03023297191730858,-1.8633989908269914e-05,0.9233152270317078,-0.016882598400115967,9.858089447021484
1729480243.6180947,-0.00011453332862303438,0.00011339522075933244,-0.7082996738499351,0.7059118543045697,-0.00014391088519297862,0.02965076832668441,-1.821771239778398e-05,1.0830795764923096,0.02365744113922119,9.782299995422363
1729480243.6330774,-0.00011200024406156597,0.00011087068603959087,-0.708299674252319,0.7059118547082881,0.00022293830832414177,0.02903049176752271,-1.739522441760101e-05,0.8432332277297974,-0.03715270757675171,9.844635963439941
1729480243.6476552,-0.0001096360448384291,0.00010851444669398505,-0.7082996746197051,0.7059118550769441,0.00014819309363745927,0.02841789583612397,-1.801725908398443e-05,0.9230928421020508,-0.016882598400115967,9.822562217712402
1729480243.664971,-0.00010731405921729473,0.00010620028894897005,-0.7082996749728485,0.7059118554313623,-0.00023367384491509443,0.027821594975176733,-1.749085479131951e-05,0.923089325428009,-0.03688257932662964,9.800912857055664
1729480243.6809828,-0.00010292338900496399,0.00010182442056066509,-0.7082996756198062,0.7059118560808004,0.00013013878256721317,0.027196355856696195,-1.688326930852067e-05,1.0027612447738647,0.04338717460632324,9.815954208374023
1729480243.6981192,-0.000100770278411658,9.967856853213744e-05,-0.7082996759271174,0.7059118563893615,9.854582260259852e-05,0.026287917351711362,-1.6063095347257303e-05,1.0428366661071777,-0.016477465629577637,9.789316177368164
1729480243.7134504,-9.861715630426078e-05,9.753270502834183e-05,-0.7082996762278849,0.7059118566914011,0.00016187514982397163,0.025723731386571077,-1.62470346104842e-05,0.8027842044830322,-0.017287909984588623,9.809419631958008
1729480243.7291336,-9.66329149837639e-05,9.555515298067308e-05,-0.7082996764992666,0.7059118569639744,-0.0002932812526473395,0.02501079704141794,-1.5849484205962723e-05,0.7227334380149841,-0.01755809783935547,9.82349967956543
1729480243.7452917,-9.426871570833654e-05,9.319891367265127e-05,-0.7082996768153587,0.7059118572815096,-2.789271832197346e-05,0.024749460596858962,-1.4824662059163769e-05,0.8423064947128296,0.08284646272659302,9.736822128295898
1729480243.761311,-9.236890679221081e-05,9.130551961030709e-05,-0.7082996770636409,0.7059118575309732,-0.00014000720529869156,0.02351185233060447,-1.3695060940271677e-05,0.7224946022033691,0.0024418234825134277,9.81758975982666
1729480243.7784576,-8.856928766415962e-05,8.751870975540667e-05,-0.7082996775449215,0.7059118580146653,7.778011319484247e-05,0.023079772829481742,-1.3789132893085135e-05,0.7225005626678467,-0.017558157444000244,9.7865629196167
1729480243.7945704,-8.675391297046052e-05,8.57094603405061e-05,-0.7082996777676706,0.7059118582385914,-0.0001486116428273209,0.02260739421173995,-1.265432726717892e-05,0.8023234605789185,0.022711873054504395,9.821738243103027
1729480243.8076308,-8.49385409206699e-05,8.390020827161888e-05,-0.7082996779857671,0.7059118584578801,-0.00037816002680330117,0.022103581049065565,-1.2310912854890698e-05,0.6424708962440491,-0.03782808780670166,9.797566413879395
1729480243.8250716,-8.147667185111221e-05,8.045000985250613e-05,-0.7082996783887752,0.705911858863205,-0.00023227145500006008,0.02126178858181459,-1.136556366047291e-05,0.5623810291290283,-0.03809821605682373,9.821235656738281
1729480243.8423612,-7.983017167453949e-05,7.880905515677323e-05,-0.7082996785745131,0.7059118590500644,-0.00015372594707156628,0.020686443528313534,-1.104554673153228e-05,0.6422607898712158,-0.01782822608947754,9.791929244995117
1729480243.857511,-7.814145329685896e-05,7.712603498459136e-05,-0.7082996787610366,0.7059118592377525,-0.00030087516902435076,0.020385870181613346,-1.0798864335326467e-05,0.4821508228778839,0.0016313493251800537,9.807428359985352
1729480243.8984385,-7.303308404526194e-05,7.203488186434955e-05,-0.7082996793007611,0.7059118597810802,-0.0003680114595941465,0.01913090463042949,-1.0068785666636109e-05,0.6421341896057129,-0.037828147411346436,9.762131690979004
1729480243.9004078,-7.303308404526194e-05,7.203488186434955e-05,-0.7082996793007611,0.7059118597810802,0.0003854187703230926,0.0185865355520315,-9.68450382380145e-06,0.48205792903900146,0.001631617546081543,10.044037818908691
1729480243.9163892,-7.113327447557581e-05,7.014147693131027e-05,-0.7082996794920864,0.7059118599737776,6.844029641231283e-05,0.018588803388279358,-9.554350437348472e-06,0.72220379114151,-0.07755786180496216,9.6986722946167
1729480243.934433,-6.969786288710904e-05,6.87109096006987e-05,-0.7082996796332633,0.7059118601160029,6.879714711601955e-05,0.01818040276562689,-9.33328509365804e-06,0.6419069170951843,0.002171635627746582,9.760781288146973
1729480243.9503508,-6.678482615062373e-05,6.580769329156866e-05,-0.708299679910828,0.7059118603957247,8.020469694806476e-05,0.017815619637632632,-8.948391770102543e-06,0.721740186214447,0.04244154691696167,9.804342269897461
1729480243.9651923,-6.534941716096464e-05,6.437712335166994e-05,-0.7082996800431928,0.7059118605291672,0.0005134964899474014,0.017075434571918863,-8.50633273425754e-06,0.6815248131752014,0.08230626583099365,9.804762840270996
1729480243.9814951,-6.399843993051311e-05,6.303070053469531e-05,-0.7082996801651146,0.7059118606521122,3.016555714978776e-06,0.016699580734476433,-8.499469657032567e-06,0.5619640350341797,-0.05809807777404785,9.822263717651367
1729480243.996714,-6.273190021589829e-05,6.176843057786661e-05,-0.7082996802770757,0.7059118607650406,-0.0001876234288703991,0.01614987056820941,-8.219859308987248e-06,0.5618605613708496,-0.03809821605682373,9.818099021911621
1729480244.0135958,-6.142314749962167e-05,6.046408992781985e-05,-0.7082996803903893,0.7059118608793616,-0.00012824613981624527,0.016005339363101577,-7.973312887855178e-06,0.4017547070980072,-0.018638640642166138,9.80085563659668
1729480244.0297937,-6.0198823987815915e-05,5.924389896427127e-05,-0.7082996804942031,0.7059118609841258,0.00020028162369207066,0.015763002717225003,-7.732672018877898e-06,0.3218603730201721,-0.05890858173370361,9.824707984924316
1729480244.045918,-5.7750182073338625e-05,5.680351190969261e-05,-0.7082996806954825,0.7059118611873263,-6.969927903520336e-05,0.015080765870223908,-7.459738291219908e-06,0.48165303468704224,-0.018368542194366455,9.80357551574707
1729480244.0615156,-5.6568082428739945e-05,5.562539224888775e-05,-0.7082996807896222,0.7059118612824034,-0.00017824025639489574,0.014722354361570133,-7.308960661546074e-06,0.5614856481552124,0.021901369094848633,9.808761596679688
1729480244.0771773,-5.542819898721961e-05,5.448935158162826e-05,-0.7082996808785312,0.7059118613722226,3.0569098599773865e-05,0.014452276742296995,-7.085513718510162e-06,0.6413190364837646,0.062171339988708496,9.81221866607666
1729480244.0920596,-5.42460967874795e-05,5.331123448399924e-05,-0.7082996809687955,0.7059118614634378,-5.575041858423738e-05,0.014231933105444664,-6.930378372700598e-06,0.4816229045391083,-0.03836837410926819,9.798924446105957
1729480244.1083562,-5.196632159230754e-05,5.103914997507995e-05,-0.7082996811373056,0.7059118616338005,0.0003346542564308323,0.013597573449936446,-6.467271698195545e-06,0.2816966772079468,-0.07904353737831116,9.80327320098877
1729480244.1242418,-5.078422194696932e-05,4.986103031354829e-05,-0.7082996812217925,0.7059118617192571,-0.00025606539280936477,0.013217765906800143,-6.490990392121528e-06,0.3614586591720581,-0.018773794174194336,9.788132667541504
1729480244.1403854,-4.964433594991601e-05,4.8724992209080186e-05,-0.7082996813013932,0.7059118617998,3.643128854781581e-05,0.013000432989319508,-6.217189925146183e-06,0.44129735231399536,0.021496206521987915,9.829004287719727
1729480244.1563227,-4.8546670942215265e-05,4.763102253919781e-05,-0.7082996813763124,0.7059118618756317,0.000296311148575541,0.012685738193159785,-5.990795498475865e-06,0.361333429813385,0.0012261271476745605,9.818563461303711
1729480244.1707368,-4.744900337956288e-05,4.653705543267811e-05,-0.7082996814495303,0.7059118619497682,0.00021891456651085058,0.012200373711609038,-6.071675833581359e-06,0.44130000472068787,0.0014962553977966309,9.79932689666748
1729480244.189425,-4.635133869508655e-05,4.544309119463338e-05,-0.7082996815210469,0.705911862022209,-1.2906656292944016e-05,0.012000995887362805,-6.049596575649264e-06,0.36133748292922974,-0.018773764371871948,9.798307418823242
1729480244.2052946,-4.533810577014643e-05,4.44332740798366e-05,-0.7082996815855528,0.7059118620875732,7.875394876009819e-05,0.011909759667842908,-5.754036025765219e-06,0.36131641268730164,-0.018773704767227173,9.853105545043945
1729480244.2215056,-4.343830037247117e-05,4.253987070515081e-05,-0.7082996817025943,0.7059118622062369,-0.00030968054351464676,0.011282546197805415,-5.6031724956705475e-06,0.521051287651062,0.04176616668701172,9.781269073486328
1729480244.236008,-4.242507032555993e-05,4.153005645868493e-05,-0.7082996817629327,0.7059118622674477,-0.0002124153813814256,0.011020000796423133,-5.400378700736437e-06,0.32129454612731934,-0.03890872001647949,9.780450820922852
1729480244.2523363,-4.149627233928157e-05,4.060439479006905e-05,-0.7082996818169697,0.7059118623222889,0.00033096235242145527,0.010793132961541585,-5.088334633604676e-06,0.3612094819545746,-0.018773704767227173,9.852825164794922
1729480244.2666488,-4.056747820759527e-05,3.967872925368112e-05,-0.7082996818697889,0.7059118623759159,0.00030196739898195776,0.010474940528227542,-5.053127267280497e-06,0.40097329020500183,0.04136097431182861,9.786550521850586
1729480244.2843575,-3.9723121614517785e-05,3.8837216555308205e-05,-0.7082996819167493,0.7059118624236144,-5.268383706967355e-05,0.010575278108218612,-5.034079357848649e-06,0.36095741391181946,0.041225939989089966,9.851775169372559
1729480244.300219,-3.892097830157354e-05,3.8037780027031155e-05,-0.7082996819604295,0.705911862467999,0.00022056791918713663,0.010349984418497339,-4.760336293524195e-06,0.16113409399986267,-0.019449129700660706,9.80762767791748
1729480244.3181052,-3.731669715348307e-05,3.6438907230468124e-05,-0.7082996820450645,0.7059118625540519,-0.0006899183085273805,0.009940919286473717,-4.1484809287877064e-07,0.4010869562625885,-0.018638670444488525,9.79526138305664
1729480244.3329751,-3.651455386280299e-05,3.563947067956115e-05,-0.7082996820860195,0.7059118625957206,4.867510299625786e-05,0.00944627585286327,-3.3865375804100746e-07,0.32113397121429443,-0.03890872001647949,9.806496620178223
1729480244.350448,-3.5796849365786255e-05,3.492418570746417e-05,-0.7082996821218931,0.7059118626322354,0.00018410995021287543,0.009358004495732116,-3.1761527937843715e-07,0.24084554612636566,0.040820688009262085,9.81824016571045
1729480244.3651443,-3.507914744597867e-05,3.4208898149367625e-05,-0.70829968215704,0.7059118626680253,0.0006196253900037678,0.009229745015702649,-3.055929607935672e-07,0.4006677567958832,0.08136075735092163,9.797496795654297
1729480244.3825448,-3.3601517116365935e-05,3.2736254360657814e-05,-0.7082996822271105,0.7059118627394286,9.255189804898259e-05,0.008576017871885075,-3.327936242070671e-07,0.3208490014076233,0.021090924739837646,9.788687705993652
1729480244.3972647,-3.288381101833211e-05,3.202096523809458e-05,-0.7082996822600327,0.7059118627730019,-0.00022130996854764827,0.008561336133470187,-3.141380425562867e-07,0.40076249837875366,0.041361004114151,9.803465843200684
1729480244.412868,-3.220832527929354e-05,3.134775669613077e-05,-0.7082996822903539,0.7059118628039379,0.00036271205989143643,0.008086660497764115,-3.137528137732678e-07,0.32081347703933716,0.021090954542160034,9.821723937988281
1729480244.4306014,-3.132174607288785e-05,3.0464171434657135e-05,-0.7082996823291728,0.7059118628435674,-2.8452173513999648e-05,0.008176262541164232,-2.768132664806892e-07,0.20098093152046204,-0.03931404650211334,9.693238258361816
1729480244.44493,-3.06462600103275e-05,2.979095746056453e-05,-0.7082996823580043,0.7059118628730187,-0.00041199914516928477,0.007900812151015658,-2.3983626497618155e-07,0.24091649055480957,-0.01917882263660431,9.94825267791748
1729480244.4624498,-2.984412087499684e-05,2.899152249615686e-05,-0.7082996823914051,0.7059118629071585,-0.00023782515251732754,0.007723915921102949,-2.83397091004631e-07,0.2808743715286255,-0.01904398202896118,9.715855598449707
1729480244.4781067,-2.9168630980123723e-05,2.8318312367221372e-05,-0.7082996824188273,0.7059118629352056,6.72430122755772e-05,0.007465450123676828,-2.747796198173614e-07,0.16073739528656006,0.020550742745399475,9.911911964416504
1729480244.494112,-2.9168630980123723e-05,2.8318312367221372e-05,-0.7082996824188273,0.7059118629352056,-0.00014397842002241844,0.007243829995171752,-3.074913448274017e-07,0.0808318704366684,-0.01971929520368576,9.794634819030762
1729480244.5105143,-2.802874881338766e-05,2.718227041564578e-05,-0.7082996824636418,0.705911862981079,0.000346114750234105,0.006914091607313478,-2.7515052338209494e-07,0.16062864661216736,0.04055051505565643,9.792490005493164
1729480244.5261786,-2.688886121345391e-05,2.6046228158890108e-05,-0.7082996825066218,0.7059118630251243,7.470019146705595e-05,0.006901699382992933,-3.155248661751546e-07,0.3607308268547058,0.0012261271476745605,9.789627075195312
1729480244.5407913,-2.7606569866582196e-05,2.676151471822835e-05,-0.7082996824797742,0.7059118629976051,0.00011895551506997426,-0.013907926006692184,-1.4294931262524163e-06,1.0406811237335205,0.023522377014160156,9.81410026550293
1729480244.5584397,-2.9421939049945227e-05,2.8570763930195282e-05,-0.7082996824086196,0.7059118629247632,-5.568204999147114e-05,-0.02559808325327995,-1.2366718205776284e-06,1.360931634902954,-0.03539681434631348,9.80526351928711
1729480244.5742192,-3.436143909422574e-05,3.349361704490188e-05,-0.708299682191459,0.7059118627030907,0.0002371923261525766,-0.030772633567965616,-8.609712669401832e-07,1.040932536125183,0.0035223960876464844,9.780120849609375
1729480244.5899668,-3.6852299448788423e-05,3.597607510300392e-05,-0.7082996820688859,0.7059118625782862,0.0003192746581117337,-0.027556908469572212,-8.049633783324825e-07,1.040867567062378,0.04352211952209473,9.792922973632812
1729480244.6060414,-3.8878762421727114e-05,3.7995706465330434e-05,-0.7082996819627031,0.7059118624703099,-0.000274533250489514,-0.022661218637040164,-5.786241152025595e-07,0.6810653805732727,0.0023067593574523926,9.835390090942383
1729480244.6223662,-4.035638889610165e-05,3.946835412118132e-05,-0.7082996818816232,0.7059118623879347,-0.0009773190284334968,-0.016712649140854702,-4.988013526953079e-07,0.7208346128463745,0.08244138956069946,9.823015213012695
1729480244.6382399,-4.1369618943187945e-05,4.047816836781853e-05,-0.7082996818242439,0.7059118623296731,0.0006222825937250606,-0.011345540352169567,-5.254287529330209e-07,0.640998125076294,0.042171478271484375,9.821409225463867
1729480244.6544926,-4.217176095614509e-05,4.1277606200165475e-05,-0.7082996817777907,0.7059118622825248,0.00033822974623575825,-0.0009226366606704004,-3.7364650053528106e-07,0.32122287154197693,-0.018908828496932983,9.804880142211914
1729480244.6700904,-4.310055348683462e-05,4.2203267586106534e-05,-0.7082996817228681,0.7059118622268012,0.0009175705062582556,-0.0020095442900832333,0.00010033170456512903,1.2811766862869263,0.004332900047302246,9.813419342041016
1729480244.6860766,-4.310055348683462e-05,4.2203267586106534e-05,-0.7082996817228681,0.7059118622268012,-0.0006220849918166997,0.00725895362814964,-0.0001438863412850572,0.16118280589580536,0.0005507618188858032,9.811944007873535
1729480244.702441,-4.310055348683462e-05,4.2203267586106534e-05,-0.7082996817228681,0.7059118622268012,0.00011928151653060354,0.014168922275813983,-3.222060787745541e-05,0.08125124126672745,-0.01971927285194397,9.815667152404785
1729480244.71852,-4.056747820759527e-05,3.967872925368112e-05,-0.7082996818697889,0.7059118623759159,0.0005722000982338099,0.020564395585065877,-0.0001677020741888165,0.0011801086366176605,-0.019989443942904472,9.80347728729248
1729480244.734538,-3.917428797209928e-05,3.8290235740166335e-05,-0.7082996819467338,0.7059118624540807,0.0008851331524848116,0.023052342016042605,0.0001575981524002811,0.04113933444023132,-0.019854385405778885,9.78537654876709
1729480244.750166,-3.7781094858161686e-05,3.6901739357916665e-05,-0.7082996820209385,0.7059118625295143,0.00018989126511825488,0.02304571526512424,0.00026767924695449044,0.08117236196994781,-0.03971915692090988,9.825238227844238
1729480244.7661035,-3.647233798294893e-05,3.5597397117852984e-05,-0.7082996820881496,0.7059118625978883,-6.880548474928373e-05,0.021746742018045412,8.36433192919385e-05,0.16113141179084778,-0.0394490510225296,9.784296035766602
1729480244.7820797,-3.647233798294893e-05,3.5597397117852984e-05,-0.7082996820881496,0.7059118625978883,0.00032959873250109934,0.003425016785472408,-0.0004193057779701373,1.2009258270263672,0.024062752723693848,9.813703536987305
1729480244.798402,-4.297390009075811e-05,4.2077041163872756e-05,-0.7082996817304291,0.7059118622344713,0.00016354434400345962,-0.051942071188692894,0.006250502710871038,4.081155300140381,0.013788223266601562,9.798287391662598
1729480244.814457,-4.79114484174529e-05,4.7001878096418764e-05,-0.7082703534782446,0.7059412878413607,0.00040059326286389236,-0.07387042353449857,0.7046729645477428,1.2015693187713623,-0.07603657245635986,9.77768325805664
1729480244.8305502,-5.926341670389577e-05,5.7565007590293284e-05,-0.7082672976290115,0.705944352115246,0.0016945139041846284,-0.1636847364074151,0.022149404681485473,5.281191349029541,0.13736581802368164,9.775419235229492
1729480244.8467262,-7.420469696307788e-05,7.246372829926579e-05,-0.70823622784748,0.7059755199771756,0.00010558778765752134,-0.15701587043590423,0.8175471233066396,5.24257755279541,-0.1632246971130371,9.783129692077637
1729480244.8622732,-8.528832639212738e-05,8.388708654804219e-05,-0.7082400808273233,0.7059716521210782,0.00019920940405429767,-0.146282575000773,0.054551453580635685,2.2417685985565186,0.18720078468322754,9.853433609008789
1729480244.8783166,-0.00011862206706624145,0.00011672308868582875,-0.7082849624884756,0.705926613903474,-0.0007446773825165074,-0.2326638306915788,-0.0703870937588582,7.283751487731934,-0.1356978416442871,9.788766860961914
1729480244.8950417,-0.00013380481041009692,0.00013222378042566593,-0.708304887423965,0.7059066163909139,-0.00021704526913302237,-0.19950330229180657,-0.37245613849546616,3.123677968978882,0.010598182678222656,9.82214069366455
1729480244.9103553,-0.00015267851393632853,0.00015102928906553622,-0.7083148472650892,0.7058966149679843,-0.0002984205697913774,-0.22858578087025808,0.052626517508508996,6.524294376373291,-0.017685413360595703,9.767745018005371
1729480244.9263964,-0.000168783290127656,0.00016746250629165655,-0.7082992400671952,0.705912267912057,-0.0035024863218281596,-0.17457588658561035,0.38163679319403604,4.88525915145874,-0.1635146141052246,9.838671684265137
1729480244.9421403,-0.0001857278578631351,0.00018474179567336737,-0.7082690147692751,0.7059425855502643,0.00026344253072150745,-0.2289083472259825,0.5281025960234226,6.24556303024292,-0.11946439743041992,9.803057670593262
1729480244.9580646,-0.0002244553587115753,0.00022297371591296225,-0.7082569713420941,0.70595464616917,-8.687146850609968e-05,-0.24600439075980374,-0.025985609777292223,6.726304054260254,-0.01810932159423828,9.812458038330078
1729480244.9735165,-0.00024285827153606903,0.000241322836583262,-0.7082481289005659,0.7059635052125541,0.0006213871319124881,-0.20554664566530592,0.006995722873313043,5.846804618835449,-0.021120548248291016,9.792196273803711
1729480244.9890616,-0.0002601032490635288,0.00025889172396286326,-0.7082433283998284,0.7059683088485686,-0.0005684398256316667,-0.2069484619511717,-0.04303522436651859,6.127039909362793,0.059696197509765625,9.80855655670166
1729480245.0052814,-0.0002782767095762721,0.0002766267083056643,-0.7082484919264462,0.7059631149880649,0.0018959244434206682,-0.22448249136552,-0.12828181154640272,7.367470741271973,0.08379697799682617,9.814136505126953
1729480245.0201387,-0.0002957346067219212,0.0002936442409426606,-0.7082580734400657,0.7059534883553367,0.0014696112494634467,-0.22504584856991383,0.06449601557908252,6.648077964782715,0.041656494140625,9.809139251708984
1729480245.0374043,-0.0003137157509604996,0.0003115721757753462,-0.7082520964905045,0.7059594693196004,-0.0010490476874052007,-0.21894712997132715,-0.11611813842889594,7.289002418518066,-0.09638023376464844,9.779912948608398
1729480245.0531201,-0.0003472618292942852,0.0003453772766468873,-0.7082606820392289,0.7059508243504536,0.0002561987949415916,-0.19605817888683594,0.06510628364327391,7.049921989440918,-0.07699108123779297,9.830277442932129
1729480245.0680015,-0.0003627117837784051,0.0003607787676039698,-0.7082587942482242,0.7059527028412699,0.0005646111844367571,-0.18730080915382177,0.12205025110454457,7.210129737854004,-0.016507625579833984,9.805922508239746
1729480245.0850909,-0.0003777821470439146,0.0003758012137788842,-0.7082577053471515,0.7059537795567671,0.0004618248415559989,-0.18694465214120262,0.12866677007936964,7.690487861633301,0.005034923553466797,9.81335163116455
1729480245.1015246,-0.00039340211743601225,0.0003913698626452182,-0.7082581198753218,0.7059533466845234,0.0016043474030125262,-0.18077520373210929,0.20458020057817555,7.69100284576416,-0.03495597839355469,9.770467758178711
1729480245.1170993,-0.0004074174368132676,0.00040533999346349095,-0.7082577829547062,0.7059536688725445,0.0010463129436945509,-0.17574614345035683,0.15584217179614632,7.691277027130127,0.025036334991455078,9.842630386352539
1729480245.1333117,-0.00043452117739183543,0.00043235269513893984,-0.7082600699545399,0.7059513422116878,0.0004917602800276954,-0.15936222717878873,0.08399016921298566,8.011812210083008,0.06613016128540039,9.771525382995605
1729480245.1494288,-0.0004467219502959164,0.00044451279023296185,-0.7082608144018916,0.7059505801617049,0.00023768257898851012,-0.14820304543652338,0.028205026053729647,7.532349586486816,0.024579524993896484,9.825003623962402
1729480245.1640155,-0.0004579937009800572,0.00045574736865683997,-0.7082610892238278,0.7059502900541814,0.00013129437853762793,-0.13614680105609886,0.0070300180602185765,7.452898025512695,-0.055674076080322266,9.804612159729004
1729480245.1815596,-0.0004694341757877432,0.000467150496251847,-0.708261128747123,0.7059502354329374,-0.0002529704633417027,-0.12309000066333356,0.004842496566069932,7.493084907531738,-0.03554391860961914,9.756335258483887
1729480245.197549,-0.0004793970761274835,0.00047708088995120567,-0.7082611220842367,0.7059502287812122,0.000367429492792307,-0.10923040624914715,0.0013442018851449213,7.253326416015625,0.0036716461181640625,9.827367782592773
1729480245.212444,-0.0004881780772872499,0.00048583291692900343,-0.7082613511030433,0.7059499870261583,-0.00042433884240026485,-0.09620259413971474,3.9050985946971805e-05,7.253741264343262,-0.056322574615478516,9.8092679977417
1729480245.229156,-0.0005017293003595623,0.0004993399165010168,-0.7082613416474418,0.7059499775870259,-0.00019149209070497663,-0.07510249227721236,-0.0003212305365999896,7.333954334259033,-0.016060829162597656,9.786554336547852
1729480245.245155,-0.0005072594071351219,0.0005048522714665934,-0.7082611027067774,0.7059502094373635,0.000395297198214488,-0.06616306865434826,-0.0003261811366261137,7.213953495025635,0.043541908264160156,9.815409660339355
1729480245.260036,-0.000512072014368847,0.0005096491761861977,-0.7082610992487286,0.7059502059854872,-0.00037818170464978807,-0.05797225777690137,-0.00033124082937247874,7.134061813354492,0.043279170989990234,9.79861068725586
1729480245.2772222,-0.0005160824537619761,0.0005136465715021379,-0.7082610963420595,0.7059502030840734,0.00033558306877646144,-0.05066446229309019,-0.0003393476665258605,7.134261131286621,0.023279666900634766,9.814007759094238
1729480245.2933893,-0.00052317468055985,0.000520715658004177,-0.7082610911462494,0.7059501978976855,-0.0001835913494238437,-0.03865213055954141,-0.00035107428716088415,7.134525299072266,-0.016721248626708984,9.772016525268555
1729480245.31061,-0.0005259609848538487,0.0005234927890238269,-0.7082610890856151,0.7059501958407551,-0.00043726884406634854,-0.033375255806857816,-0.0003548451902454392,6.974465847015381,0.042756080627441406,9.811002731323242
1729480245.3247986,-0.000528367221825218,0.0005258912160595688,-0.7082610872971592,0.7059501940556101,-0.0007139982271576464,-0.02842487276763943,-0.00037068987217005504,6.814721584320068,-0.017766475677490234,9.806286811828613
1729480245.3423595,-0.000530435793709734,0.0005279530386724509,-0.7082610857531673,0.7059501925144593,0.0021418579442874066,-0.024556669502891426,-0.00036893850019270705,6.814784049987793,-0.017766952514648438,9.809959411621094
1729480245.3581624,-0.0005337708157580355,0.0005312772203742522,-0.7082610832511381,0.7059501900170833,0.00026795485784407934,-0.01847001545963799,-0.0003420530721894618,6.814844608306885,-0.017766475677490234,9.78817367553711
1729480245.3745205,-0.0005351639448430001,0.0005326657629421338,-0.7082610822013663,0.7059501889692265,-0.0010494662365950623,-0.016184721875253664,-0.00036296711330400833,6.735093116760254,-0.07802772521972656,9.797060012817383
1729480245.3905213,-0.0005362615291785906,0.0005337598071729962,-0.7082610813723126,0.7059501881417434,0.001112683005767369,-0.013920735112675938,-0.0003767828842839949,6.815013885498047,-0.037766456604003906,9.811456680297852
1729480245.4064853,-0.0005371902682133683,0.0005346855159471152,-0.7082610806694929,0.7059501874402306,0.0003200975825149079,-0.011401785192406371,-0.0003904900054805077,6.814882278442383,0.0022330284118652344,9.794050216674805
1729480245.4222171,-0.0005379501874685273,0.0005354429557615103,-0.708261080093521,0.7059501868653311,0.0003152700928549501,-0.00947638304658021,-0.0003989180239002879,6.734799861907959,0.041971683502197266,9.8115234375
1729480245.4385693,-0.0005386678327032273,0.000536158259485798,-0.7082610795488417,0.7059501863216668,0.00047189295060415427,-0.0066374735316262565,-0.00041539649622850084,6.735068321228027,-0.018027782440185547,9.845736503601074
1729480245.4542212,-0.0005396810276749411,0.0005371681486366686,-0.7082610787786074,0.70595018555287,0.0010878927207829954,-0.005633249377530927,-0.00042282076782369007,6.895026683807373,-0.01750469207763672,9.800370216369629
1729480245.4703872,-0.0005396810276749411,0.0005371681486366686,-0.7082610787786074,0.70595018555287,-0.00045857441522796,-0.0040755927207977855,-0.00042942305299944734,6.895066261291504,-0.037505149841308594,9.783853530883789
1729480245.486187,-0.0005396810276749411,0.0005371681486366686,-0.7082610787786074,0.70595018555287,-0.0017156083247838244,-0.0027677945057904925,-0.00043590848103398645,6.655074119567871,-0.018289566040039062,9.831389427185059
1729480245.5022876,-0.0005404831288475656,0.0005379676327386918,-0.7082610781678196,0.7059501849432234,0.0010293772303471098,-0.001662643613693564,-0.00044557234514434906,6.65514612197876,-0.038289546966552734,9.820858001708984
1729480245.5182147,-0.0005404831288475656,0.0005379676327386918,-0.7082610781678196,0.7059501849432234,-0.0001077971562521121,-0.001098846911806301,-0.00045386036949060293,6.815028667449951,-0.017766952514648438,9.787372589111328
1729480245.5340595,-0.0005404831288475656,0.0005379676327386918,-0.7082610781678196,0.7059501849432234,-0.0001504054325139004,-0.0005581770849570006,-0.0004621287482884781,6.894954681396484,0.00249481201171875,9.781659126281738
1729480245.5501716,-0.0005404831288475656,0.0005379676327386918,-0.7082610781678196,0.7059501849432234,-0.0004645346765872718,-0.00018009670860647632,-0.00046749552649000427,6.89507532119751,-0.017505168914794922,9.817961692810059
1729480245.5650866,-0.0005404831288475656,0.0005379676327386918,-0.7082610781678196,0.7059501849432234,-0.00016992863915201464,0.00028347369463868963,-0.0004692972369281848,6.815361976623535,-0.017766475677490234,10.005934715270996
1729480245.582162,-0.0005404831288475656,0.0005379676327386918,-0.7082610781678196,0.7059501849432234,-0.00011851414160905197,0.0010654058112082659,-0.0004657282087890385,7.014793872833252,0.04288673400878906,9.762338638305664
1729480245.5979884,-0.0005404831288475656,0.0005379676327386918,-0.7082610781678196,0.7059501849432234,-0.00021003957278279873,0.0013560090160511522,-0.0004299163021723352,6.775065898895264,-0.03789710998535156,9.768548011779785
1729480245.6141033,-0.0005404831288475656,0.0005379676327386918,-0.7082610781678196,0.7059501849432234,-0.00015153325374350386,0.0015371668187660146,-0.00029969471648476717,6.774878978729248,0.02210235595703125,9.774576187133789
1729480245.6302028,-0.0005404831288475656,0.0005379676327386918,-0.7082610781678196,0.7059501849432234,-0.0001226579453413473,0.0015350449953206978,0.00013345312206524277,6.8948211669921875,0.04249429702758789,9.780054092407227
1729480245.6448464,-0.0005404831288475656,0.0005379676327386918,-0.7082610781678196,0.7059501849432234,-0.0003034918310038965,0.0014283614342114322,0.0010146197236899346,6.695024490356445,-0.018158435821533203,9.784100532531738
1729480245.661219,-0.0005404831288475656,0.0005379676327386918,-0.7082610781678196,0.7059501849432234,-1.639720645899118e-05,0.000517026331210206,0.003899673244621973,6.895029544830322,-0.01750469207763672,9.78760814666748
1729480245.6783211,-0.000539681191260886,0.0005371679843142524,-0.7082612667845045,0.7059499969314947,0.0008013228981418619,1.367074827139782e-05,0.006558169299070723,6.334949493408203,0.0006690025329589844,9.791340827941895
1729480245.692952,-0.000539681191260886,0.0005371679843142524,-0.7082612667845045,0.7059499969314947,-1.0518706015876189e-05,0.0004045925910447819,0.009723437125357653,6.7350172996521,-0.018023967742919922,9.7940673828125
1729480245.7103605,-0.0005380773396406446,0.0005355686636799614,-0.7082617850192401,0.7059494794391046,0.0006487314424065105,0.0020991494600958245,0.0160926060354244,6.255111217498779,-0.05958366394042969,9.797663688659668
1729480245.725942,-0.0005372333506219114,0.0005347267476941025,-0.7082622086720464,0.7059490556793931,0.0007845273091434668,0.0028065511602556868,0.017354748621322056,6.614955425262451,-0.018398761749267578,9.797558784484863
1729480245.7424068,-0.0005362203422214348,0.0005337167632552759,-0.7082623974443248,0.7059488678230019,-0.0009831090978538036,0.00465491690977417,0.014701583649582418,6.374932765960693,-0.0191802978515625,9.800374984741211
1729480245.758768,-0.0005352917284074924,0.0005327909286972904,-0.7082625391500411,0.7059487270569502,-9.525746004320761e-06,0.004072042973435563,0.012046605242607825,6.654901027679443,-0.018261432647705078,9.797592163085938
1729480245.7746508,-0.0005344896050509161,0.0005319914668430065,-0.7082625397549341,0.70594872766075,-3.523358752941697e-05,0.0023238084474848605,0.00991528023042305,6.535012245178223,-0.058653831481933594,9.798993110656738
1729480245.7902641,-0.0005334571530954796,0.0005313386320188933,-0.7082623992450688,0.7059488699037224,-0.0014643428032242297,-0.0010986357612438858,0.006794505350287069,6.81479024887085,0.0022535324096679688,9.797953605651855
1729480245.8061588,-0.0005334571530954796,0.0005313386320188933,-0.7082623992450688,0.7059488699037224,0.0011775179011154207,-0.0034118512456666112,0.006186593084374478,6.615120887756348,-0.09840059280395508,9.799707412719727
1729480245.8222299,-0.0005334571530954796,0.0005313386320188933,-0.7082623992450688,0.7059488699037224,0.0005107617462367518,-0.004441932484922465,0.007260245127542261,6.934792518615723,0.0026464462280273438,9.799214363098145
1729480245.8384595,-0.0005334571530954796,0.0005313386320188933,-0.7082623992450688,0.7059488699037224,0.00017804515577651402,-0.004810408350689426,0.006794295241928811,6.5748610496521,-0.018531322479248047,9.801010131835938
1729480245.8540735,-0.0005334571530954796,0.0005313386320188933,-0.7082623992450688,0.7059488699037224,0.0012420317975828014,-0.0035341614074804266,0.003456312717251986,6.814663410186768,0.04225301742553711,9.80033016204834
1729480245.8705094,-0.0005334571530954796,0.0005313386320188933,-0.7082623992450688,0.7059488699037224,-8.518976787671543e-05,-0.003407215313130898,0.0026788646840722992,6.814925670623779,-0.037746429443359375,9.80080509185791
1729480245.8866918,-0.0005334571530954796,0.0005313386320188933,-0.7082623992450688,0.7059488699037224,0.00025240225363474915,-0.0026511766546469615,0.0019050749959281011,6.734858989715576,-0.01800823211669922,9.799768447875977
1729480245.9024527,-0.0005344049215696296,0.0005319075151022088,-0.7082622108088557,0.7059490578121961,-0.0002550613333235264,-0.0023748047475818652,0.0011028774279466193,6.6546854972839355,0.04173135757446289,9.80141830444336
1729480245.9184406,-0.0005344049215696296,0.0005319075151022088,-0.7082622108088557,0.7059490578121961,-0.00022402709900802732,-0.0015990689516133924,0.0005839572554506636,6.854748725891113,0.02238607406616211,9.800374984741211
1729480245.9344792,-0.0005344049215696296,0.0005319075151022088,-0.7082622108088557,0.7059490578121961,-0.00014318686596440075,-0.0009721050894717446,0.00015867469718530987,6.734881401062012,-0.018005847930908203,9.800808906555176
1729480245.9503522,-0.0005344049215696296,0.0005319075151022088,-0.7082622108088557,0.7059490578121961,4.628909382443435e-05,9.758429807395943e-05,-0.0003217049479327212,6.774749755859375,0.022124290466308594,9.800768852233887
1729480245.9652965,-0.0005344049215696296,0.0005319075151022088,-0.7082622108088557,0.7059490578121961,7.668298487769274e-05,0.0007329892713251226,-0.00046664732863599813,6.774880409240723,-0.017876148223876953,9.800679206848145
1729480245.9809873,-0.0005344049215696296,0.0005319075151022088,-0.7082622108088557,0.7059490578121961,0.00023637555075393477,0.0009572816112913665,-0.0005484422727985807,6.654946804046631,-0.03826761245727539,9.800901412963867
1729480245.9974172,-0.0005344049215696296,0.0005319075151022088,-0.7082622108088557,0.7059490578121961,-0.000741874582874339,0.0016834640388196161,-0.0006030609618876221,6.774683952331543,0.04212331771850586,9.800683975219727
1729480246.0131736,-0.0005344049215696296,0.0005319075151022088,-0.7082622108088557,0.7059490578121961,0.0003653146521148489,0.0022271567267190514,-0.0006548552777084238,6.814815521240234,0.002254486083984375,9.801518440246582
1729480246.029366,-0.0005344049215696296,0.0005319075151022088,-0.7082622108088557,0.7059490578121961,-0.000552089726800618,0.0020872228925930846,-0.0006399201273525137,6.774683475494385,0.04212379455566406,9.799968719482422
1729480246.0450068,-0.0005344049215696296,0.0005319075151022088,-0.7082622108088557,0.7059490578121961,0.0007933381030953845,0.002555983811261551,-0.0006699687491957715,6.6948137283325195,0.0018634796142578125,9.799034118652344
1729480246.0610907,-0.0005335608180526202,0.00053106571408331,-0.7082625404542471,0.7059487283587644,3.9446593617804964e-05,0.0031319856618229934,-0.0007110162205105061,6.694859981536865,-0.018129825592041016,9.802054405212402
1729480246.0774846,-0.0005335608180526202,0.00053106571408331,-0.7082625404542471,0.7059487283587644,-5.15997363044991e-05,0.003186138381432983,-0.000708742704249989,6.614725589752197,0.02160787582397461,9.799660682678223
1729480246.0929768,-0.0005327167244763591,0.0005302239952405777,-0.7082628230970851,0.7059484460595925,-0.00011910163209292895,0.003559325218435035,-0.0007192049228005005,6.614833831787109,-0.018387794494628906,9.800273895263672
1729480246.1092477,-0.0005327167244763591,0.0005302239952405777,-0.7082628230970851,0.7059484460595925,0.00029653834908198977,0.003752388953010309,-0.0007555844659118705,6.574899673461914,-0.038518428802490234,9.800374984741211
1729480246.1240141,-0.0005327167244763591,0.0005302239952405777,-0.7082628230970851,0.7059484460595925,0.0003962464377616144,0.003495748888828211,-0.0007501014298365169,6.7747673988342285,0.00213623046875,9.800066947937012
1729480246.1413164,-0.0005318303119902663,0.0005293401854939685,-0.7082629647665099,0.7059483052572906,-0.0007108803691985079,0.004018240225981837,-0.0007602462972209107,6.494812488555908,-0.018776416778564453,9.801095962524414
1729480246.1578565,-0.0005318303119902663,0.0005293401854939685,-0.7082629647665099,0.7059483052572906,7.050135935521706e-05,0.003943227790149038,-0.0007671201026349366,6.734677314758301,0.022008419036865234,9.799034118652344
1729480246.1730003,-0.0005308596287999278,0.0005283721934732236,-0.7082633415045547,0.7059479287395651,-0.000280625142233984,0.0038398844933662324,-0.0007746453377579342,6.9345831871032715,0.042668819427490234,9.799178123474121
1729480246.1893752,-0.0005308596287999278,0.0005283721934732236,-0.7082633415045547,0.7059479287395651,0.00024885167250919993,0.0038986914883051165,-0.0007828256503044565,6.614652156829834,0.021622657775878906,9.800102233886719
1729480246.2051163,-0.0005308596287999278,0.0005283721934732236,-0.7082633415045547,0.7059479287395651,-0.00020197499700802475,0.004093316861590771,-0.0007965447047385786,6.5747833251953125,-0.0185089111328125,9.800369262695312
1729480246.2202933,-0.0005298889250461294,0.0005274041300303299,-0.7082636712398461,0.7059475993758078,0.00013843139261176233,0.004071562725759546,-0.0008087571488418642,6.614756107330322,-0.018371105194091797,9.800315856933594
1729480246.2357588,-0.0005298889250461294,0.0005274041300303299,-0.7082636712398461,0.7059475993758078,0.000215888422517618,0.003669673794686401,-0.0008031203355429945,6.774687767028809,0.0021524429321289062,9.799489974975586
1729480246.2535276,-0.000529087136484194,0.0005266043318215976,-0.7082640948502494,0.7059471755738078,0.0015901805134517022,0.004132475806860961,-0.0008301855958737064,6.89466667175293,0.0025539398193359375,9.799864768981934
1729480246.268981,-0.000529087136484194,0.0005266043318215976,-0.7082640948502494,0.7059471755738078,-0.0002659825906954386,0.0031360331658910876,-0.0008487592372758949,6.214735984802246,-0.019674301147460938,9.800783157348633
1729480246.286124,-0.0005282006806020377,0.0005257205656061508,-0.7082642365148464,0.7059470347667521,0.0011379047632731638,0.003063795494408606,-0.0008317115390916742,6.734574317932129,0.022031784057617188,9.798800468444824
1729480246.3015337,-0.0005282006806020377,0.0005257205656061508,-0.7082642365148464,0.7059470347667521,0.0009377944779446718,0.004175616805778122,-0.0008365602376062478,6.5347771644592285,-0.03862333297729492,9.801877975463867
1729480246.3182056,-0.0005275255543889427,0.0005250470595969993,-0.7082646600287735,0.7059466108684853,0.0004353445183089768,0.004093818787113274,-0.0008587120264339651,6.53469181060791,-0.018614768981933594,9.800471305847168
1729480246.3345335,-0.0005275255543889427,0.0005250470595969993,-0.7082646600287735,0.7059466108684853,-0.0012405172665003639,0.0037535720631704955,-0.0008511493240714867,6.614494800567627,0.04164695739746094,9.800370216369629
1729480246.3504121,-0.0005275255543889427,0.0005250470595969993,-0.7082646600287735,0.7059466108684853,-0.0002770151554714275,0.0036722801388447824,-0.0008654109499902751,6.334824562072754,-0.05927085876464844,9.800868034362793
1729480246.3649642,-0.0005265969502425058,0.0005241212152716098,-0.7082648487238495,0.7059464229350454,-0.00031616743063500705,0.003654666471692548,-0.0008612722530583541,6.614795207977295,-0.058348655700683594,9.799680709838867
1729480246.3814282,-0.0005265969502425058,0.0005241212152716098,-0.7082648487238495,0.7059464229350454,0.00023989121804019028,0.0036007428285564913,-0.0008810577173452825,6.774531841278076,0.022175312042236328,9.79985523223877
1729480246.3970518,-0.0005257106733034962,0.000523237269319432,-0.7082651783900515,0.7059460935022989,0.00018075988916732964,0.003743797021931576,-0.0008860112094879451,6.534443378448486,0.04139423370361328,9.800166130065918
1729480246.4140458,-0.0005257106733034962,0.000523237269319432,-0.7082651783900515,0.7059460935022989,0.00027735345494112144,0.0033890361460025206,-0.0008949099654707998,6.494510650634766,0.02126312255859375,9.80082893371582
1729480246.4316783,-0.0005257106733034962,0.000523237269319432,-0.7082651783900515,0.7059460935022989,-0.00023808612043849624,0.0037025203178122842,-0.0009035839180167693,6.574509143829346,0.021525859832763672,9.80006217956543
1729480246.4453666,-0.0005248244495803088,0.0005223533619754689,-0.7082656020572689,0.7059456697570407,0.000122017927767906,0.0035729589163486153,-0.0009064520638596457,6.574550151824951,0.0015330314636230469,9.800464630126953
1729480246.4620433,-0.0005248244495803088,0.0005223533619754689,-0.7082656020572689,0.7059456697570407,7.756458537496353e-05,0.0037395648392866804,-0.0009070386163597805,6.574484348297119,0.02153301239013672,9.800317764282227
1729480246.4769158,-0.0005248244495803088,0.0005223533619754689,-0.7082656020572689,0.7059456697570407,0.00011517481526633379,0.0025671185120450263,-0.0009173322583877318,6.854612827301025,-0.017548561096191406,9.799116134643555
1729480246.4941313,-0.0005239381645571103,0.0005214694240798978,-0.708265978722023,0.7059452931661023,-0.0006842505938752254,0.003845354814550858,-0.0009245961087078975,6.574457168579102,0.02153921127319336,9.798930168151855
1729480246.5091171,-0.0005230748737667525,0.0005209847015791982,-0.7082661200853662,0.7059451523360994,-0.0012134316310783628,0.003907833703179285,-0.000923405598898189,6.614442825317383,0.021669387817382812,9.801676750183105
1729480246.5247931,-0.0005230748737667525,0.0005209847015791982,-0.7082661200853662,0.7059451523360994,-3.1987746899673366e-05,0.003192760963534718,-0.0009218016466989932,6.614505290985107,0.0016684532165527344,9.799771308898926
1729480246.5411627,-0.0005230748737667525,0.0005209847015791982,-0.7082661200853662,0.7059451523360994,0.0004710591872777367,0.0036916584660773794,-0.0009578942188954519,6.614506244659424,0.0016689300537109375,9.800444602966309
1729480246.5581717,-0.0005223767332174189,0.0005199120003839377,-0.7082667318921311,0.7059445398251201,2.665124472893769e-06,0.0033855824898636677,-0.000955263382939357,6.494482517242432,0.0012912750244140625,9.800081253051758
1729480246.574096,-0.0005223767332174189,0.0005199120003839377,-0.7082667318921311,0.7059445398251201,-0.00019370489857328886,0.003363273692979544,-0.000965195275904059,6.49461555480957,-0.03870820999145508,9.800666809082031
1729480246.5903277,-0.0005214903738338415,0.0005190282293904619,-0.708266920548873,0.7059443518533906,0.00012279791335976966,0.0033289689177957564,-0.0009832598005750537,6.454457759857178,0.0011625289916992188,9.800488471984863
1729480246.606489,-0.0005214903738338415,0.0005190282293904619,-0.708266920548873,0.7059443518533906,-0.0005779668222809771,0.003048571601390716,-0.0009751550999401959,6.534590244293213,-0.038573265075683594,9.800386428833008
1729480246.6220813,-0.0005214903738338415,0.0005190282293904619,-0.708266920548873,0.7059443518533906,-0.0007984551170704408,0.0036378415446471045,-0.0009682392415883937,6.454524517059326,-0.018836498260498047,9.800512313842773
1729480246.6367857,-0.0005165277717398667,0.0005258647230696998,-0.7082708165789294,0.7059404415727792,-0.10500211227640596,-0.030538836326078213,-0.04650537734654828,6.614518642425537,0.001598358154296875,9.824456214904785
1729480246.6540573,-0.0005132116447665433,0.000532738103267146,-0.7082741954833808,0.7059370487630541,-0.049484893959514276,-0.01831970794220474,-0.037087513646559336,6.494351863861084,0.06112337112426758,9.811604499816895
1729480246.670041,-0.000511659978303218,0.000536236985662853,-0.7082768248656199,0.7059344091431141,-0.026482874562800927,-0.009827116428761004,-0.030872918620867124,6.414750099182129,-0.059162139892578125,9.793879508972168
1729480246.6860201,-0.0005111266697633979,0.0005378698354080737,-0.708281335648795,0.7059298825075525,-0.009055900359564625,-0.0044643090250768595,-0.02539119322146269,6.614297389984131,0.0815134048461914,9.794336318969727
1729480246.7023666,-0.0005113932502719366,0.0005372646826702018,-0.7082828401104824,0.7059283732990432,0.005465434497769557,0.003171726990776687,-0.01671359462846686,6.534362316131592,0.06132698059082031,9.7949800491333
1729480246.718318,-0.0005115621403856569,0.0005362509631446098,-0.7082841098796039,0.7059270999410194,0.007019209986218226,0.004980117123846754,-0.01404647746122295,6.254688739776611,-0.039563655853271484,9.797027587890625
1729480246.7343931,-0.0005117784858680917,0.0005348518769332576,-0.7082852859372621,0.7059259208592797,0.008526672423174378,0.005955691919401385,-0.011562882441046795,6.7345356941223145,0.002079486846923828,9.79605484008789
1729480246.7504704,-0.0005119782778484975,0.0005335537537689744,-0.7082862269151132,0.7059249775726791,0.008378650251018834,0.006698444142397194,-0.009744387096460548,6.174458026885986,0.020247936248779297,9.79758358001709
1729480246.7649086,-0.0005121227168322761,0.0005322267916525305,-0.7082869799123419,0.7059242229528739,0.008323400924193773,0.006812881077119649,-0.008225281154650974,6.494643211364746,-0.03864765167236328,9.798759460449219
1729480246.7825632,-0.0005122769796145135,0.00053097433172356,-0.7082875448515102,0.705923656953622,0.008854865013825474,0.006890278492947665,-0.007097522874178649,6.29435920715332,0.040711402893066406,9.798028945922852
1729480246.796919,-0.0005122769796145135,0.00053097433172356,-0.7082875448515102,0.705923656953622,0.007419292985926351,0.006666829921467756,-0.006097822719892463,6.494428634643555,0.02138042449951172,9.8002290725708
1729480246.8135173,-0.0005121766515160326,0.0005283731472756131,-0.7082886747949029,0.705922525249177,0.005322058054868813,0.007381223352442124,-0.005096087766208153,6.894452095031738,0.0027747154235839844,9.79787826538086
1729480246.8292484,-0.0005121766515160326,0.0005283731472756131,-0.7082886747949029,0.705922525249177,0.005554861450871127,0.007151228071323184,-0.004420214200914277,6.174528121948242,-0.019634723663330078,9.801206588745117
1729480246.8461583,-0.0005121709535039062,0.0005259302832689766,-0.7082892876136941,0.7059219122041313,0.005676371199891581,0.006395592120525907,-0.003450819467575884,6.454492092132568,-0.018653392791748047,9.800814628601074
1729480246.8623538,-0.0005121853713958058,0.0005238893484578536,-0.7082899941243617,0.7059212048305444,0.005936236885942758,0.006031693615420979,-0.003092040894617654,6.4942626953125,0.04152202606201172,9.800867080688477
1729480246.8773253,-0.0005121853713958058,0.0005238893484578536,-0.7082899941243617,0.7059212048305444,0.00533916020822029,0.006281520791022088,-0.002760955562105552,6.65439510345459,0.0020589828491210938,9.80004596710205
1729480246.8945503,-0.0005120743172235928,0.0005218899342626517,-0.7082906535985724,0.7059205447043579,0.004635890013783658,0.005680660495324337,-0.002501616814476672,6.454236030578613,0.041426658630371094,9.80127239227295
1729480246.90767,-0.0005120743172235928,0.0005218899342626517,-0.7082906535985724,0.7059205447043579,0.004945082805752351,0.005504754359361747,-0.002285182693861914,6.41456937789917,-0.058707237243652344,9.800360679626465
1729480246.926109,-0.0005119797863258417,0.000520127221092291,-0.7082909838960021,0.7059202146673557,0.003941686578640155,0.0053659081694950915,-0.00211055054826209,6.334277629852295,0.02105426788330078,9.801270484924316
1729480246.9414313,-0.0005117546463372647,0.0005184110953089811,-0.7082914081538558,0.7059197904100338,0.0046935826840367855,0.004575216222756925,-0.001849481533290062,6.254184246063232,0.04081392288208008,9.801076889038086
1729480246.9573667,-0.0005117546463372647,0.0005184110953089811,-0.7082914081538558,0.7059197904100338,0.002756437815521359,0.004205637704990777,-0.001728802316763135,6.374317169189453,0.0012164115905761719,9.800837516784668
1729480246.9733608,-0.0005115097328736972,0.0005170525529739774,-0.7082915501490678,0.7059196491116261,0.0036757923668573164,0.005751113913288285,-0.0016538384476440997,6.414360046386719,-0.01863241195678711,9.800545692443848
1729480246.988936,-0.0005115097328736972,0.0005170525529739774,-0.7082915501490678,0.7059196491116261,0.003256456104415557,0.004495477182626664,-0.0015876000159564397,6.534229278564453,0.021770477294921875,9.802623748779297
1729480247.0054448,-0.0005112267104300181,0.0005158167077186829,-0.7082917390514989,0.7059194606835669,0.002834658989515876,0.004400802940030286,-0.0015244109694147363,6.414137840270996,0.041384220123291016,9.80018424987793
1729480247.020032,-0.0005112267104300181,0.0005158167077186829,-0.7082917390514989,0.7059194606835669,0.0020160293012361093,0.004637804334381113,-0.0014679649837754352,6.5741376876831055,0.04192018508911133,9.80065631866455
1729480247.037257,-0.0005108657784584287,0.000514574575057651,-0.7082921629534206,0.7059190365246769,0.0030175433076389175,0.004248948791626527,-0.0014437831375785147,6.374185085296631,0.021270275115966797,9.801766395568848
1729480247.0531964,-0.0005108657784584287,0.000514574575057651,-0.7082921629534206,0.7059190365246769,0.00192154724108647,0.00405665378683821,-0.0013923773554678236,6.414316654205322,-0.01859569549560547,9.800341606140137
1729480247.06904,-0.0005104341702484519,0.0005134033533780505,-0.7082923048053537,0.7059188953608442,0.002293838407835118,0.004224220205128308,-0.0013520394688540781,6.334229469299316,0.0011487007141113281,9.801558494567871
1729480247.085152,-0.0005100501136705665,0.0005124377087823082,-0.7082925405047145,0.7059186598481824,-0.00014854619240619712,0.0040088724781278725,-0.0013099473442015502,6.5742082595825195,0.0019664764404296875,9.800418853759766
1729480247.1011658,-0.0005100501136705665,0.0005124377087823082,-0.7082925405047145,0.7059186598481824,0.00189741354472165,0.004030190972621043,-0.0013036271055260576,6.374074935913086,0.04129457473754883,9.800921440124512
1729480247.117791,-0.0005097588673047698,0.0005112945728937073,-0.7082926823323467,0.7059185185828506,0.0008467900446295203,0.0038201393102700112,-0.0012937278335515019,6.3742570877075195,-0.018689632415771484,9.800637245178223
1729480247.1334648,-0.0005097588673047698,0.0005112945728937073,-0.7082926823323467,0.7059185185828506,0.002049411934180879,0.003884103131382788,-0.001300075169535103,6.2141923904418945,0.0007724761962890625,9.802120208740234
1729480247.148045,-0.0005092911686342164,0.0005102440233518271,-0.7082931060875639,0.7059180944999025,0.0015893659266817922,0.0036495259039035204,-0.0012876031123760542,6.4542365074157715,-0.018405437469482422,9.800506591796875
1729480247.1658607,-0.0005092911686342164,0.0005102440233518271,-0.7082931060875639,0.7059180944999025,0.001273472595740345,0.0036187291879156342,-0.0012824761974614966,6.214170455932617,0.0007882118225097656,9.801050186157227
1729480247.1811616,-0.0005092911686342164,0.0005102440233518271,-0.7082931060875639,0.7059180944999025,0.0014947387917133563,0.0037626446588069082,-0.0012749550269347155,6.294304370880127,-0.038942813873291016,9.80113697052002
1729480247.1973724,-0.00050874895362072,0.0005090993192600868,-0.7082933889111769,0.7059178119420885,-0.00011231083824008943,0.0032568160817317377,-0.0012707105462807552,6.454144477844238,0.0016083717346191406,9.800146102905273
1729480247.2133522,-0.00050874895362072,0.0005090993192600868,-0.7082933889111769,0.7059178119420885,0.0017932958902494346,0.002860716386315573,-0.0012830484717646666,6.4542131423950195,-0.01839160919189453,9.801258087158203
1729480247.2291284,-0.0005080452691347764,0.0005078633391683924,-0.7082938127967043,0.705917388026914,0.0025251331090982796,0.004259841075722847,-0.0012970578842772136,6.214186668395996,-0.019183635711669922,9.801264762878418
1729480247.245042,-0.0005080452691347764,0.0005078633391683924,-0.7082938127967043,0.705917388026914,0.0002235652983456078,0.0036498364807426107,-0.0012732804132936056,6.33411979675293,0.0012202262878417969,9.801678657531738
1729480247.2611933,-0.0005075506791946962,0.0005069242294903193,-0.7082940014699469,0.7059171997492514,0.0023568717490756127,0.00385308004865178,-0.0012924860472972187,6.334031105041504,0.021228790283203125,9.80054759979248
1729480247.2758095,-0.0005075506791946962,0.0005069242294903193,-0.7082940014699469,0.7059171997492514,0.0008035419071249144,0.00395630578480556,-0.0012848414797981276,6.414165496826172,-0.018501758575439453,9.800758361816406
1729480247.2920558,-0.0005075506791946962,0.0005069242294903193,-0.7082940014699469,0.7059171997492514,-0.00020915745118344894,0.003368927650536813,-0.0012924856304155554,6.174234867095947,-0.03930854797363281,9.801398277282715
1729480247.310194,-0.0005067954576438321,0.0005059932480067142,-0.7082943781336419,0.705916823027667,0.0003433770883518129,0.0035162688464955055,-0.0012998353583583422,6.614074230194092,0.0021796226501464844,9.800771713256836
1729480247.3261805,-0.0005067954576438321,0.0005059932480067142,-0.7082943781336419,0.705916823027667,0.001691132993896005,0.002646941762271255,-0.0013192884116290694,5.974212169647217,-0.03997230529785156,9.80103588104248
1729480247.3421738,-0.0005060974515441089,0.0005050893183633397,-0.7082945667795643,0.7059166348944466,0.0004414839345630526,0.003383290266038514,-0.0013206239962575746,6.414052486419678,0.001514434814453125,9.800407409667969
1729480247.357962,-0.0005060974515441089,0.0005050893183633397,-0.7082945667795643,0.7059166348944466,0.0004414839345630526,0.003383290266038514,-0.0013206239962575746,6.414052486419678,0.001514434814453125,9.800407409667969
1729480247.373965,-0.0005060974515441089,0.0005050893183633397,-0.7082945667795643,0.7059166348944466,6.149879983822334e-05,0.0034625467656436105,-0.0013018387874113079,6.374120712280273,-0.018620014190673828,9.800813674926758
1729480247.3899627,-0.0005054230340170477,0.0005041617207079224,-0.7082949904371175,0.7059162109558041,0.0004794014062402077,0.0030437418188816105,-0.0013260143803832801,6.294099807739258,-0.01887798309326172,9.801204681396484
1729480247.4065287,-0.0005054230340170477,0.0005041617207079224,-0.7082949904371175,0.7059162109558041,0.0002953360623652956,0.003285527972521916,-0.0013209919985457722,6.254032135009766,0.0009865760803222656,9.801358222961426
1729480247.422447,-0.0005046383916551368,0.0005031758901950282,-0.7082953201366411,0.7059158814098535,7.058077531205833e-05,0.00318463093733882,-0.0013303357757041023,6.134007453918457,0.0005917549133300781,9.80078125
1729480247.4381652,-0.0005046383916551368,0.0005031758901950282,-0.7082953201366411,0.7059158814098535,0.0005348985692140457,0.0030147397784538385,-0.001341861094606004,6.2540740966796875,-0.01900482177734375,9.801267623901367
1729480247.4541802,-0.0005046383916551368,0.0005031758901950282,-0.7082953201366411,0.7059158814098535,0.000986609027857273,0.0028840794769259513,-0.0013590016010704964,6.134209632873535,-0.05940866470336914,9.801115989685059
1729480247.4702933,-0.0005039519943218308,0.0005022603121894299,-0.7082957437827041,0.7059154574779278,0.002000964240131902,0.0025910358468266407,-0.0013844690060963371,6.293983459472656,0.0011401176452636719,9.800461769104004
1729480247.4866889,-0.0005039519943218308,0.0005022603121894299,-0.7082957437827041,0.7059154574779278,-7.98691072091817e-05,0.0032941859793442683,-0.0013461243349348086,6.254053115844727,-0.018993377685546875,9.801872253417969
1729480247.502154,-0.0005039519943218308,0.0005022603121894299,-0.7082957437827041,0.7059154574779278,0.00018246764490066443,0.003324839913362505,-0.0013650259579855266,6.294119358062744,-0.03885984420776367,9.801409721374512
1729480247.5184848,-0.0005031087692206131,0.0005014176300683934,-0.708296026378574,0.7059151751295965,0.0006355661110415454,0.0032547960816326593,-0.001374187245195787,6.333759307861328,0.06128072738647461,9.800837516784668
1729480247.534423,-0.0005031087692206131,0.0005014176300683934,-0.708296026378574,0.7059151751295965,0.00016468430691150403,0.003197705180060374,-0.001374208923042274,6.174097061157227,-0.03925895690917969,9.801451683044434
1729480247.5506542,-0.0005023682900989418,0.0005003030261405415,-0.7082964501631439,0.7059147512336543,0.0007351195366241196,0.0029192382341968223,-0.0013916776195961277,6.374003887176514,-0.018571853637695312,9.80152416229248
1729480247.566503,-0.0005023682900989418,0.0005003030261405415,-0.7082964501631439,0.7059147512336543,1.1633916575167593e-05,0.0036405683676061533,-0.0013781644004832148,6.013936996459961,0.00021457672119140625,9.801126480102539
1729480247.5819588,-0.000501608586343984,0.0004995454620209146,-0.7082966856968868,0.7059145159819019,1.3399410418856801e-05,0.006937406964973419,-0.0013860178256955736,6.093984127044678,-0.019510746002197266,9.801559448242188
1729480247.5986314,-0.0005002154993235097,0.0004981568770486504,-0.7082968746777655,0.7059143283330422,0.0016409896336819258,0.018301014968426454,-0.00139801797281187,5.734087944030762,-0.060721397399902344,9.806482315063477
1729480247.614496,-0.000497640319359738,0.000495590120237022,-0.7082970174877206,0.7059141886678186,-0.000415557647046435,0.034564252336128864,-0.0013614617239855074,5.333685874938965,0.0379328727722168,9.809505462646484
1729480247.6277068,-0.0004930385726168307,0.0004910038545311162,-0.7082970207034566,0.7059141918751797,-0.0002629822933653249,0.05883482929377332,-0.0013168886323348082,4.733767032623291,-0.02408885955810547,9.812016487121582
1729480247.6466393,-0.0004861149365758934,0.00048410335838532353,-0.7082971664826816,0.7059140551715991,0.0004490048966490023,0.08814186368140221,-0.0012642504438072559,3.9335851669311523,-0.026782989501953125,9.816824913024902
1729480247.6612046,-0.00047648925752390685,0.0004745101066436261,-0.7082971730183856,0.7059140616904507,0.0006820717618624647,0.1189724104500208,-0.0011859021209054599,3.3731212615966797,0.03132939338684082,9.81844711303711
1729480247.6779537,-0.00046116436375675976,0.00045923642747051224,-0.7082974181493523,0.7059138360113754,-0.000606245989904745,0.15534572910127745,-0.0010909146959595958,2.8527679443359375,0.009578943252563477,9.819921493530273
1729480247.6939747,-0.00044427733396620926,0.00044240603177499925,-0.7082976169302838,0.7059136581377602,-0.0006101680125922133,0.18287449972610972,-0.0009920422465738731,2.132030487060547,0.08715248107910156,9.81726360321045
1729480247.710628,-0.00042574375351894,0.0004239347897714145,-0.7082976283031193,0.7059136694821305,0.0009568401336100285,0.21341315595930943,-0.0008837349313864094,1.2119954824447632,-0.055948734283447266,9.819256782531738
1729480247.7264624,-0.0004025240539984892,0.0004007930163146351,-0.7082978768623427,0.7059134472239792,0.0007816564535697795,0.2534274990467118,-0.0007549463243059137,0.3310256600379944,0.04108405113220215,9.825338363647461
1729480247.7425182,-0.00035152489021489266,0.000349965537303832,-0.7082979039819471,0.7059134742793587,0.0008098576643225275,0.31382486084515115,-0.000500935689104297,-1.1101793050765991,-0.02377140522003174,9.825369834899902
1729480247.758358,-0.00031935496213142243,0.0003179037796895511,-0.7082980601972113,0.7059133479900085,0.0006853934749549124,0.345975628485459,-0.0003637844098047292,-2.031203031539917,0.013124942779541016,9.823774337768555
1729480247.773938,-0.00028258313497093817,0.0002812559065716106,-0.708297887806572,0.7059135521936349,-0.000548469526437313,0.36978179927028887,-0.00022320537313963491,-2.5922210216522217,0.011237621307373047,9.822489738464355
1729480247.790307,-0.00024999095765285053,0.00024877344398326973,-0.7082979000424138,0.7059135644055876,8.703155106477185e-05,0.3728586127283945,-0.00010047158139068755,-3.033128261566162,0.009754180908203125,9.813794136047363
1729480247.8060424,-0.0002148235098613556,0.00021372435943111545,-0.7082979115629219,0.7059135759059754,-0.00040951786550986606,0.3852470284180638,1.803770094147763e-05,-3.6340296268463135,-0.012269020080566406,9.817816734313965
1729480247.8222096,-0.00018199716312089655,0.00018063252335446652,-0.7082979208372127,0.7059135850701599,0.0010837589222106169,0.3850441504553732,0.00012645177691737885,-3.9148781299591064,-0.03320741653442383,9.811665534973145
1729480247.8370292,-0.00014691414475539191,0.00014566757480661267,-0.7082979759447346,0.7059135460308038,0.00039969946857797275,0.38961520119655135,0.0002359729472876909,-4.355982303619385,0.005307674407958984,9.814486503601074
1729480247.8544395,-0.0001123799398741459,0.00011124962661938074,-0.7082979822292198,0.7059135523307973,-0.000525124153297621,0.38591846802998775,0.0003392834146395184,-4.516939163208008,0.004768848419189453,9.81089973449707
1729480247.87037,-8.090852181404433e-05,8.026015215692928e-05,-0.7082979864472977,0.705913556610739,-0.001154088526320592,0.3763567901613517,0.00043253812306246316,-4.837669849395752,-0.0363154411315918,9.806136131286621
1729480247.8859107,-4.814747131557926e-05,4.7609389171993084e-05,-0.7082979894145331,0.7059135595853767,0.0005543925811081834,0.3722259397760956,0.00052268935594365,-5.038642883300781,-0.016989707946777344,9.810254096984863
